Na-23(n,tot) ENDF/B-VII.1
Energy(eV) XS(b)
1.00000E-05 30.0100
1.25000E-05 27.2058
1.50000E-05 25.1358
2.00000E-05 22.2301
2.75000E-05 19.4650
3.50000E-05 17.6452
4.25000E-05 16.3312
5.00000E-05 15.3252
6.25000E-05 14.0703
7.50000E-05 13.1438
0.000100000 11.8427
0.000125000 10.9542
0.000150000 10.2979
0.000200000 9.37556
0.000275000 8.49606
0.000350000 7.91542
0.000425000 7.49478
0.000500000 7.17151
0.000625000 6.76612
0.000750000 6.46456
0.00100000 6.03600
0.00125000 5.75475
0.00150000 5.54694
0.00200000 5.25474
0.00275000 4.97583
0.00350000 4.79143
0.00425000 4.65764
0.00500000 4.55463
0.00625000 4.42515
0.00750000 4.32850
0.0100000 4.19040
0.0125000 4.09659
0.0150000 4.02598
0.0200000 3.92379
0.0253000 3.84700
0.0326500 3.77933
0.0400000 3.73000
0.0500000 3.68140
0.0625000 3.63640
0.0750000 3.60179
0.100000 3.55000
0.125000 3.51516
0.150000 3.48766
0.200000 3.44500
0.275000 3.41087
0.350000 3.38618
0.500000 3.35000
0.750000 3.30810
1.00000 3.27500
1.50000 3.25629
2.00000 3.24377
2.75000 3.22999
3.50000 3.21918
5.00000 3.20173
7.50000 3.17795
10.0000 3.15695
15.0000 3.15340
20.0000 3.15174
27.5000 3.15082
35.0000 3.15081
50.0000 3.15210
75.0000 3.15117
100.000 3.15103
150.000 3.16095
200.000 3.17088
300.000 3.19807
350.000 3.21407
400.000 3.22790
450.000 3.24782
500.000 3.26105
550.000 3.28034
600.000 3.30443
600.000 3.29915
809.750 3.47014
989.600 3.70072
1000.00 3.71719
1130.00 3.97088
1249.20 4.29144
1369.60 4.72463
1510.20 5.44228
1629.40 6.32038
1730.70 7.45460
1865.35 9.80227
2000.00 13.5537
2155.45 21.2606
2233.18 27.6415
2310.90 37.0400
2388.63 51.4185
2466.35 74.3506
2544.08 112.350
2621.80 175.934
2715.90 294.852
2810.00 379.023
2904.10 312.465
2998.20 205.505
3053.51 159.202
3108.82 125.402
3219.44 82.9051
3330.06 59.2063
3440.68 44.9268
3551.29 35.7114
3661.91 29.4222
3883.15 21.6077
4104.39 17.0857
4325.63 14.2093
4546.86 12.2502
4768.10 10.8457
5000.00 9.75435
5006.50 9.72797
5028.10 9.64343
5049.70 9.56102
5092.90 9.40226
5179.30 9.10721
5352.10 8.59424
5912.20 7.49757
6651.10 6.62310
7104.00 6.25639
7330.45 6.10840
7443.68 6.04150
7556.90 5.97886
7586.80 5.96218
7601.75 5.95452
7609.22 5.95291
7612.96 5.95999
7614.83 5.98917
7615.76 6.07235
7616.23 6.24490
7616.46 6.48576
7616.70 7.06036
7617.00 8.17421
7617.30 7.05828
7617.54 6.48366
7617.77 6.24353
7618.23 6.07076
7619.16 5.98657
7621.03 5.95538
7624.75 5.94425
7632.19 5.93769
7647.07 5.92895
7676.84 5.91278
7736.38 5.88144
7855.45 5.82162
8093.60 5.71207
8569.90 5.52669
9946.40 5.13742
10000.0 5.12545
10173.0 5.08821
10346.0 5.05295
10692.0 4.98780
11384.0 4.87562
13333.0 4.63881
14999.8 4.49719
16666.5 4.39059
20000.0 4.23899
20801.0 4.21060
22624.4 4.16924
24447.8 4.13654
28094.6 4.08950
31741.4 4.05956
32653.2 4.05415
33564.9 4.04949
34476.6 4.04559
34932.4 4.04403
35160.3 4.04381
35274.3 4.04569
35331.3 4.05438
35359.8 4.08762
35366.9 4.11986
35374.0 4.20372
35377.6 4.30778
35381.1 4.55488
35382.9 4.82860
35384.7 5.38499
35386.5 6.74847
35387.4 8.23176
35388.3 10.9076
35389.1 15.0577
35390.0 17.7866
35390.9 15.0167
35391.8 10.9195
35392.3 9.03159
35392.9 7.75330
35394.0 6.24521
35395.1 5.47347
35396.3 5.03860
35398.5 4.59976
35400.8 4.39711
35405.3 4.22139
35409.8 4.14990
35427.8 4.07215
35463.9 4.05014
35536.1 4.04405
35680.5 4.04209
35969.2 4.04091
36546.6 4.03949
37124.0 4.03849
37701.4 4.03785
40011.0 4.03955
42508.3 4.02407
43756.9 4.02431
45005.5 4.03435
46254.1 4.06185
47502.8 4.12395
48751.4 4.26514
49375.7 4.40124
50000.0 4.63037
50428.0 4.88680
50856.0 5.29419
51235.0 5.83429
51614.0 6.80191
51955.5 8.14862
52297.0 11.0868
52449.0 13.2322
52664.0 18.3659
52752.0 21.2281
52986.0 30.5918
53220.0 36.1194
53359.0 34.0287
53776.0 19.1780
54050.8 13.1532
54325.5 9.87538
54600.3 8.04376
54875.0 6.97231
55178.5 6.16071
55482.0 5.63901
56089.0 5.05047
56638.9 4.70221
57188.8 4.47901
58288.5 4.21600
59388.3 4.06859
60488.0 3.97428
62668.3 3.87548
64848.5 3.81892
67028.8 3.78105
69209.0 3.75288
72356.3 3.71846
75503.5 3.69026
81798.0 3.64348
89989.0 3.60507
99469.0 3.53902
100000 3.53633
101973 3.52644
103945 3.51668
107890 3.49754
112652 3.47344
115033 3.46203
116224 3.45767
116819 3.45967
116968 3.46350
117117 3.47465
117191 3.48951
117266 3.52818
117303 3.57629
117340 3.69208
117359 3.82328
117377 4.09957
117387 4.36648
117396 4.82746
117405 5.69336
117410 6.41706
117415 7.41342
117422 9.76628
117430 11.2738
117438 9.65431
117446 7.31446
117452 6.04816
117458 5.25454
117464 4.75328
117470 4.42988
117483 4.04824
117495 3.84945
117520 3.65991
117544 3.57702
117594 3.50876
117643 3.48223
117742 3.46203
117841 3.45455
118236 3.44615
119026 3.44101
120607 3.43315
123768 3.41781
130090 3.38746
136604 3.36673
139861 3.35675
141490 3.35216
142304 3.35066
142711 3.35186
142915 3.35779
143017 3.37581
143067 3.42486
143093 3.53504
143106 3.71411
143118 4.26779
143124 4.77977
143130 5.08687
143142 4.16515
143150 3.75726
143158 3.57657
143174 3.43912
143205 3.37205
143269 3.34973
143396 3.34440
143650 3.34332
144158 3.34227
145174 3.33962
147206 3.33384
151270 3.32224
159605 3.30426
167940 3.29162
173695 3.29910
179450 3.31984
182290 3.34508
185130 3.38320
187588 3.44243
188203 3.46153
188817 3.48304
189432 3.50771
189739 3.52274
189893 3.53578
189970 3.55893
190008 3.61315
190027 3.71698
190037 3.85247
190046 4.15341
190060 4.77041
190074 4.14908
190090 3.75343
190106 3.64013
190137 3.57673
190201 3.55380
190327 3.55185
190581 3.56287
191088 3.59159
191595 3.62480
192102 3.66287
194130 3.88831
195800 4.19391
196750 4.48146
197700 4.96031
198690 5.70743
199070 6.11198
199935 7.50075
200800 8.66546
201150 8.82698
201520 8.76017
202770 7.13288
203610 6.05662
203960 5.69817
204850 5.11234
206005 4.75351
207160 4.63150
207650 4.62674
208905 4.62267
210160 4.70771
213550 4.79762
214300 4.79547
215940 4.66388
219810 4.25241
221440 4.08237
223500 3.93769
226570 3.79000
229640 3.80618
231485 3.96286
233330 4.33960
234725 4.90768
235423 5.39684
235771 5.72041
235946 5.90765
236120 6.11631
236245 6.24993
236370 6.41124
236447 6.54108
236523 6.73940
236562 6.91055
236600 7.21985
236619 7.49644
236638 7.95048
236658 8.77462
236677 10.3461
236693 12.5668
236710 14.0525
236727 12.5854
236743 10.4031
236755 9.35487
236767 8.66355
236779 8.20905
236790 7.90655
236813 7.55071
236837 7.36983
236883 7.22432
236930 7.19488
237009 7.24804
237088 7.34475
237245 7.58556
237560 8.13557
238190 9.25752
239000 10.3122
239050 10.3375
239255 10.3844
239460 10.3415
239870 10.0188
240690 8.81219
241210 7.89120
241730 7.01097
241985 6.58800
242240 6.14955
242460 5.92925
242570 5.81000
242680 5.72950
242743 5.74839
242805 5.94513
242888 6.83886
242970 8.55551
243045 9.47671
243120 9.32317
243135 9.21628
243189 8.80075
243244 8.40864
243353 7.77670
243461 7.30823
243570 6.94363
243750 6.47492
243930 6.09937
244225 5.73811
244520 5.45166
245110 4.99914
245810 4.65710
246510 4.39025
248425 3.96731
250340 3.70886
253988 3.43620
257635 3.27863
264930 3.08898
271415 2.98061
277900 2.87195
285305 2.67997
289008 2.50385
290859 2.36277
292710 2.14684
294065 1.91601
294743 1.75371
295420 1.54904
296140 1.32405
296500 1.21830
296860 1.16714
297300 1.31926
297478 1.54883
297655 1.94113
298010 3.35646
298320 5.06018
298780 6.82227
298895 6.98909
299010 7.07839
299125 7.14302
299183 7.20493
299240 7.34908
299265 7.53319
299290 7.78605
299315 8.15260
299340 8.70062
299344 8.80159
299352 9.04812
299360 9.32073
299377 9.91301
299410 10.6819
299443 9.87465
299476 8.70432
299500 8.09887
299523 7.66773
299570 7.10647
299607 6.90093
299644 6.75634
299718 6.55502
299791 6.40707
299865 6.28362
300013 6.07164
300160 5.88555
300455 5.56225
300750 5.28900
301263 4.94702
301775 4.69041
302288 4.49384
302800 4.34021
303390 4.18643
303981 4.06292
304276 4.01028
304571 3.96377
304866 3.92931
305014 3.93784
305087 3.99441
305124 4.09393
305161 4.38511
305181 4.68766
305200 4.88628
305220 4.67570
305239 4.36648
305262 4.14735
305284 4.03439
305329 3.93461
305419 3.87043
305598 3.82763
305957 3.78029
306675 3.70683
307392 3.64537
308110 3.59242
309335 3.52540
310560 3.47207
313010 3.39282
317910 3.29625
329700 3.17384
343770 3.13726
354530 3.18498
362045 3.27736
369560 3.45528
375160 3.70338
380520 4.08932
380940 4.12275
382550 4.27330
388400 4.96270
389860 5.13086
391250 5.27511
392320 5.37874
393520 5.43418
395390 5.40667
397100 5.37073
399050 5.18304
402950 4.65955
403710 4.55107
406525 4.19435
409340 3.90277
414970 3.46468
419075 3.32175
423180 3.23781
425050 3.30224
426920 3.41389
427770 3.46704
428620 3.56901
428900 3.58053
429900 3.69474
430900 3.74129
430980 3.72852
431220 3.74030
431460 3.72943
431940 3.67031
432900 3.56538
433010 3.55983
433458 3.49632
433905 3.45174
434800 3.40268
436060 3.29321
437320 3.22212
439430 3.24400
441750 3.40588
443530 3.81277
445310 4.57879
446150 5.14512
447485 6.09585
448820 6.59356
449260 6.47180
450550 5.73654
451840 4.88208
452330 4.59266
453485 4.08180
454640 3.75037
456320 3.41613
458000 3.20525
459310 3.08791
462400 2.89586
465490 2.76321
474095 2.58375
482700 2.45342
485810 2.42483
490360 2.38580
491500 2.37657
493610 2.34362
495560 2.31411
497720 2.28273
500000 2.24759
500000 2.23005
500110 2.22873
504010 2.17975
507800 2.13199
508170 2.16467
508390 2.50745
508520 2.93005
508600 3.15034
508670 2.98434
508860 2.38482
509010 2.17161
509270 2.10660
511400 2.07415
519460 1.93341
522560 1.99350
526940 2.14530
527410 2.18407
529820 2.38354
533090 2.79526
536790 3.33691
539130 3.61864
541060 3.77696
541770 3.83532
543720 3.92196
546150 3.97978
548540 3.99416
553220 3.97256
558100 3.93641
559260 3.92702
562950 3.89716
563400 3.97080
563680 4.21396
563790 4.50794
563940 4.91648
563990 5.04096
564080 4.89841
564280 4.25664
564460 4.00963
564800 3.88409
565820 3.89706
566260 3.84068
569900 3.84514
572910 3.88496
574590 3.90721
580310 4.06915
583410 4.16734
583970 4.20372
587580 4.43880
590560 4.71044
592420 4.87652
593600 4.98190
596320 5.13045
596460 5.13809
597590 5.21307
598790 5.34632
598920 5.41156
599260 5.58312
599560 6.05112
599740 6.34554
599920 6.00456
600000 5.86988
600160 5.60022
600400 5.30548
600750 5.16693
600870 5.14791
601410 5.06283
604120 4.85156
605340 4.75656
606720 4.65442
607370 4.60637
609970 4.48937
611480 4.42148
614700 4.29433
615820 4.27105
619460 4.19614
621670 4.20861
622560 4.21357
624670 4.29809
625570 4.44116
626620 4.60778
627110 4.70191
627590 4.59863
628980 4.33583
630120 4.31252
630360 4.30751
633370 4.33767
634100 4.34513
635970 4.37201
636700 4.38264
639220 4.45655
642790 4.56100
648970 4.79914
652780 4.94597
657420 5.18917
660000 5.32440
663350 5.49997
668220 5.78173
669770 5.90714
673910 6.24183
681390 6.84280
682520 7.07751
683010 7.99760
683420 8.81439
683580 8.42020
684070 7.36869
684800 7.19009
686510 7.31218
687970 7.45718
688780 7.53762
693940 7.96949
695770 8.11652
698380 8.32645
701130 8.52353
702280 8.57892
704440 8.68306
707480 8.76944
707750 8.77700
710350 8.81458
713330 8.75062
713870 8.73942
718170 8.51435
718530 8.48645
721780 8.23480
722540 8.17609
725680 7.84935
726060 7.80993
730280 7.25594
733480 6.82330
735490 6.55158
738680 6.11050
740990 5.79110
744860 5.25590
746830 5.07755
747130 5.07433
747680 5.06816
748100 5.53761
748730 5.00228
749300 4.85214
750000 4.71949
750040 4.71176
752330 4.59628
754910 4.46624
757260 4.39402
757530 4.39170
758940 4.37957
761630 4.53122
762730 4.55709
763470 4.57471
765150 5.31130
765660 5.80253
766160 5.91795
766500 6.19248
767000 6.38750
768850 6.30080
770530 6.49239
771700 6.62601
773210 6.90033
776070 7.08095
777910 7.13146
779590 7.08814
780930 7.04201
782950 6.97255
786140 6.83532
786780 6.79815
789500 6.64025
796050 6.16359
800000 5.88852
801730 5.76800
804450 5.57848
810160 5.22458
812780 5.09080
818220 4.81292
826440 4.51182
827290 4.48073
832660 4.30006
840550 4.11230
842690 4.06714
850460 3.90294
852440 3.88157
857850 3.82342
858940 3.82039
865740 3.80169
871940 3.82945
873800 3.83783
880000 3.91988
880350 3.92448
883640 4.05438
886570 4.17007
892280 4.48068
893390 4.58550
896640 4.89235
897290 4.95200
899160 5.12351
902290 5.46153
902490 5.47756
904560 5.64615
905700 5.73285
907520 5.90031
911390 5.87699
911590 5.86962
913210 5.80794
915030 5.68648
917300 5.47851
922760 4.98161
926540 4.66434
928680 4.48458
933690 4.14376
936410 3.95883
943240 3.62948
944100 3.60139
946420 3.52548
949610 3.35790
952570 3.28865
953200 3.27981
959050 3.19837
962120 3.15571
964250 3.15078
964630 3.14991
965760 3.23650
966450 3.72753
966670 4.61180
967130 4.98726
967810 4.73319
968270 4.21315
968490 3.46772
969180 3.21336
971220 3.20195
973350 3.27677
974180 3.30592
976460 3.46769
979190 3.75655
980550 3.92992
981920 3.99931
982450 4.00053
984420 4.00519
985790 3.91265
987000 3.81588
988970 3.65855
992200 3.43251
992610 3.40408
996100 3.25520
997620 3.19027
999440 3.20187
1.00000E+06 3.17168
1.00010E+06 3.16629
1.00190E+06 3.06902
1.00560E+06 3.09795
1.00730E+06 3.09500
1.00900E+06 3.09211
1.01260E+06 3.16137
1.01320E+06 3.18220
1.01760E+06 3.33479
1.02360E+06 3.65260
1.02510E+06 3.71031
1.02900E+06 3.86058
1.03170E+06 3.91257
1.03350E+06 3.92100
1.03540E+06 3.92987
1.03820E+06 3.88007
1.03930E+06 3.86065
1.04400E+06 3.83735
1.04900E+06 3.91892
1.05110E+06 3.95309
1.05610E+06 4.15535
1.05970E+06 4.39062
1.06220E+06 4.55398
1.06450E+06 4.65124
1.06630E+06 4.72729
1.06950E+06 4.76776
1.07280E+06 4.70435
1.07340E+06 4.69272
1.07840E+06 4.48458
1.08000E+06 4.40645
1.08290E+06 4.26513
1.08520E+06 4.10913
1.08660E+06 3.97619
1.08770E+06 4.06862
1.08830E+06 4.19991
1.08910E+06 4.37492
1.09000E+06 4.44421
1.09420E+06 4.28242
1.09840E+06 4.14374
1.10420E+06 3.96748
1.10800E+06 3.84619
1.10960E+06 3.80282
1.11090E+06 3.96141
1.11120E+06 3.99777
1.11310E+06 3.73350
1.11990E+06 3.63378
1.12410E+06 3.56651
1.12990E+06 3.47354
1.13360E+06 3.43955
1.13370E+06 3.43881
1.13950E+06 3.43229
1.14150E+06 3.43008
1.14560E+06 3.54707
1.14890E+06 3.41280
1.15510E+06 3.26540
1.15740E+06 3.24354
1.15920E+06 3.22641
1.16380E+06 3.27413
1.16780E+06 3.34340
1.17080E+06 3.46478
1.17170E+06 3.48356
1.17350E+06 3.52108
1.17620E+06 3.48641
1.18010E+06 3.35552
1.18330E+06 3.24809
1.18680E+06 3.14844
1.19220E+06 3.06605
1.19630E+06 3.05307
1.19910E+06 3.07289
1.20060E+06 3.08339
1.20490E+06 3.20040
1.20630E+06 3.25255
1.21060E+06 3.41276
1.21280E+06 3.70306
1.21470E+06 3.61652
1.21980E+06 3.77665
1.22420E+06 3.86514
1.22520E+06 3.88524
1.22930E+06 3.91124
1.23370E+06 3.86531
1.23390E+06 3.86344
1.23770E+06 3.78113
1.24200E+06 3.58610
1.24440E+06 3.50128
1.25450E+06 3.14412
1.26320E+06 2.91009
1.26830E+06 2.83042
1.27180E+06 2.77566
1.27890E+06 2.71506
1.28460E+06 2.69337
1.28970E+06 2.73265
1.29020E+06 2.73669
1.29590E+06 2.80624
1.29810E+06 2.92309
1.30120E+06 3.05744
1.30480E+06 3.41283
1.30650E+06 3.49084
1.30760E+06 3.59231
1.30960E+06 3.77675
1.31220E+06 3.99783
1.31410E+06 4.08466
1.31620E+06 4.13221
1.31790E+06 4.08872
1.31930E+06 4.02832
1.32100E+06 3.91123
1.32200E+06 4.19280
1.32340E+06 3.81580
1.32530E+06 3.62083
1.32900E+06 3.38558
1.32980E+06 3.33478
1.33320E+06 3.18742
1.33700E+06 2.97512
1.34340E+06 2.79306
1.35130E+06 2.62841
1.35480E+06 2.60234
1.35530E+06 2.60117
1.36370E+06 2.58066
1.36600E+06 2.55083
1.36870E+06 2.51566
1.37220E+06 2.48105
1.37650E+06 2.49838
1.38060E+06 2.55901
1.38340E+06 2.62409
1.38500E+06 2.63120
1.38730E+06 2.64136
1.38890E+06 2.94912
1.39060E+06 3.55587
1.39110E+06 3.90260
1.39200E+06 4.12756
1.39300E+06 3.86352
1.39420E+06 3.45174
1.39560E+06 3.17443
1.39750E+06 3.01855
1.39930E+06 2.98298
1.40390E+06 2.89270
1.41130E+06 2.86576
1.41940E+06 2.83643
1.42560E+06 2.69843
1.42680E+06 2.67183
1.42940E+06 2.96213
1.43110E+06 2.63273
1.43350E+06 2.58073
1.43870E+06 2.56663
1.45110E+06 2.53302
1.45540E+06 2.53452
1.46400E+06 2.53736
1.47040E+06 2.57640
1.47280E+06 2.67169
1.47320E+06 2.66246
1.47830E+06 2.54585
1.48500E+06 2.45943
1.49020E+06 2.36845
1.49310E+06 2.32486
1.49570E+06 2.32937
1.49760E+06 2.48966
1.49830E+06 2.50818
1.50080E+06 2.57474
1.50430E+06 2.51675
1.50870E+06 2.41566
1.51540E+06 2.30731
1.52590E+06 2.24945
1.53700E+06 2.21341
1.53760E+06 2.21604
1.54030E+06 2.22799
1.54380E+06 2.32896
1.54550E+06 2.26402
1.54990E+06 2.19174
1.55070E+06 2.19756
1.55690E+06 2.24227
1.56020E+06 2.55286
1.56250E+06 2.28574
1.56950E+06 2.30007
1.57510E+06 2.40124
1.57930E+06 2.54674
1.58240E+06 2.65399
1.58790E+06 2.96451
1.59230E+06 3.37628
1.59580E+06 3.80251
1.59910E+06 4.30814
1.60110E+06 4.67634
1.60170E+06 4.81371
1.60320E+06 4.93643
1.60430E+06 4.82807
1.60550E+06 4.68841
1.60610E+06 4.61874
1.60780E+06 4.39464
1.61050E+06 3.97565
1.61310E+06 3.70869
1.61570E+06 3.39793
1.61630E+06 3.35585
1.61950E+06 3.13074
1.62600E+06 2.90682
1.63090E+06 2.75521
1.63210E+06 2.86351
1.63390E+06 2.92130
1.63620E+06 2.80569
1.63880E+06 2.58179
1.64150E+06 2.48068
1.65050E+06 2.35795
1.65080E+06 2.35585
1.66280E+06 2.27119
1.66510E+06 2.24210
1.67480E+06 2.11951
1.67750E+06 1.85951
1.67980E+06 1.72952
1.68100E+06 1.91726
1.68390E+06 2.47350
1.68540E+06 2.53195
1.68890E+06 2.66854
1.69380E+06 2.82738
1.69650E+06 2.87794
1.70110E+06 2.80572
1.70560E+06 2.78725
1.70640E+06 2.78398
1.71140E+06 2.98628
1.71640E+06 3.37629
1.71960E+06 3.59290
1.72070E+06 3.47023
1.72340E+06 3.41961
1.73570E+06 3.51354
1.73900E+06 3.51352
1.74150E+06 3.51353
1.74650E+06 3.37626
1.75640E+06 3.05780
1.75820E+06 3.05268
1.76030E+06 3.19928
1.76250E+06 2.96677
1.76790E+06 2.67862
1.76980E+06 2.85050
1.77240E+06 2.60102
1.77370E+06 2.47626
1.78070E+06 2.42070
1.78340E+06 2.40545
1.78520E+06 2.46604
1.78700E+06 2.64304
1.78920E+06 2.55723
1.79130E+06 2.69394
1.79610E+06 2.76450
1.79830E+06 2.91618
1.79950E+06 3.10815
1.80070E+06 3.56341
1.80190E+06 3.96278
1.80280E+06 3.76083
1.80340E+06 3.29526
1.80400E+06 3.06279
1.80570E+06 3.01052
1.80860E+06 2.92125
1.82600E+06 2.57966
1.83590E+06 2.38527
1.84030E+06 2.34036
1.84830E+06 2.25886
1.86290E+06 2.03988
1.87930E+06 1.79384
1.88440E+06 1.74833
1.88960E+06 1.80390
1.89560E+06 1.94039
1.90140E+06 1.95054
1.90350E+06 2.28932
1.90690E+06 2.00106
1.91060E+06 1.93884
1.91170E+06 1.92025
1.91410E+06 2.04155
1.91840E+06 1.96065
1.92260E+06 1.94535
1.92810E+06 2.28926
1.93140E+06 2.63786
1.93240E+06 3.02226
1.93330E+06 3.54296
1.93360E+06 3.82126
1.93480E+06 3.51786
1.93600E+06 2.93136
1.93750E+06 2.71907
1.93930E+06 2.66847
1.94880E+06 2.80527
1.95300E+06 2.86571
1.95690E+06 3.16398
1.96150E+06 3.32572
1.96660E+06 3.30054
1.96940E+06 3.64932
1.97330E+06 3.21450
1.97380E+06 3.18196
1.97820E+06 2.89604
1.98820E+06 2.77975
1.99000E+06 2.77599
1.99000E+06 2.77599
1.99640E+06 2.76261
1.99790E+06 2.75951
2.01170E+06 2.88576
2.01500E+06 2.91599
2.01820E+06 3.17298
2.02000E+06 3.29427
2.02500E+06 3.11514
2.02690E+06 3.04008
2.03010E+06 3.04456
2.03320E+06 3.04877
2.04140E+06 3.14120
2.04460E+06 3.22206
2.04730E+06 3.12955
2.05190E+06 3.16429
2.05550E+06 3.29138
2.06830E+06 3.33484
2.07970E+06 3.30883
2.08320E+06 3.33116
2.08420E+06 3.33771
2.08970E+06 3.46768
2.09650E+06 3.47921
2.10600E+06 3.60058
2.10920E+06 3.67873
2.11380E+06 3.59775
2.12240E+06 3.33178
2.12560E+06 3.10653
2.12870E+06 3.07710
2.13200E+06 3.04588
2.13650E+06 2.79449
2.13850E+06 2.80445
2.14290E+06 2.82626
2.14790E+06 2.95906
2.15040E+06 3.06026
2.15290E+06 3.16139
2.15660E+06 3.22793
2.16000E+06 3.25616
2.16110E+06 3.26543
2.16790E+06 3.13829
2.16920E+06 3.11162
2.17500E+06 2.99268
2.17790E+06 2.93321
2.18400E+06 2.93754
2.19020E+06 2.94193
2.19610E+06 3.10076
2.20070E+06 3.58914
2.20250E+06 3.69028
2.20390E+06 3.57745
2.20930E+06 2.95079
2.21000E+06 2.93922
2.21430E+06 2.86929
2.21660E+06 2.83210
2.21930E+06 3.14119
2.22000E+06 3.22418
2.22120E+06 3.36645
2.22530E+06 2.99100
2.23250E+06 2.81469
2.23380E+06 2.80469
2.23850E+06 2.76852
2.24000E+06 2.80106
2.24210E+06 2.84649
2.24530E+06 3.14122
2.25120E+06 2.76851
2.25580E+06 2.81466
2.25980E+06 2.75237
2.26080E+06 2.73666
2.26530E+06 2.98233
2.26850E+06 3.06595
2.27080E+06 3.30589
2.27440E+06 3.12099
2.28000E+06 3.05007
2.28580E+06 2.97669
2.28900E+06 2.93607
2.29000E+06 2.93021
2.29530E+06 2.89851
2.31040E+06 2.87828
2.31350E+06 3.13255
2.31900E+06 2.88702
2.32000E+06 2.85549
2.32450E+06 2.71359
2.33000E+06 2.66262
2.33540E+06 2.61248
2.33670E+06 2.62456
2.34220E+06 2.67603
2.34630E+06 2.78580
2.36000E+06 2.80582
2.36220E+06 2.80899
2.37570E+06 2.92585
2.38000E+06 2.96316
2.38680E+06 3.02197
2.39880E+06 3.13040
2.40580E+06 3.29646
2.41000E+06 3.41792
2.41130E+06 3.45543
2.41530E+06 3.53491
2.41870E+06 3.45543
2.42270E+06 3.25681
2.42620E+06 3.37209
2.42670E+06 3.36960
2.43620E+06 3.31819
2.43870E+06 3.25678
2.44320E+06 3.32899
2.45410E+06 3.23511
2.45560E+06 3.40848
2.45960E+06 3.74794
2.46210E+06 3.52043
2.46660E+06 3.10874
2.47660E+06 3.00399
2.48950E+06 2.99763
2.49150E+06 2.99672
2.49800E+06 2.96135
2.50000E+06 2.95057
2.50350E+06 2.93173
2.51000E+06 2.96717
2.51540E+06 2.99667
2.52000E+06 3.28069
2.52090E+06 3.33623
2.52490E+06 3.75152
2.52690E+06 3.50597
2.52940E+06 3.37587
2.53000E+06 3.29793
2.53340E+06 2.85587
2.53840E+06 3.09795
2.54230E+06 2.87764
2.54830E+06 2.63920
2.55040E+06 2.62848
2.56000E+06 2.57941
2.56030E+06 2.57782
2.56330E+06 2.99312
2.56580E+06 3.30374
2.56830E+06 3.65036
2.57020E+06 3.14836
2.57320E+06 2.65006
2.57970E+06 2.45864
2.58500E+06 2.40989
2.58520E+06 2.40812
2.59420E+06 2.54173
2.59970E+06 2.98585
2.60110E+06 2.72228
2.60610E+06 2.48032
2.60890E+06 2.46299
2.61000E+06 2.45597
2.61540E+06 2.42242
2.62060E+06 2.38996
2.63000E+06 2.38585
2.63700E+06 2.38279
2.65400E+06 2.72951
2.67190E+06 2.42995
2.67640E+06 2.53812
2.68000E+06 2.52827
2.68440E+06 2.51642
2.69730E+06 2.20222
2.69990E+06 2.36335
2.70330E+06 2.57425
2.71000E+06 2.67987
2.71430E+06 2.74764
2.71880E+06 2.69700
2.72000E+06 2.72999
2.72720E+06 2.92814
2.73170E+06 2.93896
2.74070E+06 2.69339
2.75020E+06 2.57058
2.75580E+06 2.54854
2.75583E+06 2.54842
2.76000E+06 2.53202
2.78500E+06 2.43340
2.79090E+06 2.49309
2.79750E+06 2.55979
2.80000E+06 2.58515
2.81180E+06 2.70457
2.81470E+06 2.71632
2.81990E+06 2.73665
2.82000E+06 2.73640
2.82370E+06 2.70835
2.82800E+06 2.67572
2.83000E+06 2.64232
2.84000E+06 2.47569
2.84100E+06 2.45897
2.84590E+06 2.58178
2.86000E+06 2.47001
2.86050E+06 2.46619
2.88000E+06 2.50950
2.88330E+06 2.51677
2.89460E+06 2.43730
2.90680E+06 2.48790
2.90740E+06 2.49568
2.91270E+06 2.56414
2.92000E+06 2.65825
2.92470E+06 2.71899
2.94180E+06 2.22792
2.94370E+06 2.25474
2.95000E+06 2.34352
2.95230E+06 2.37588
2.97260E+06 2.43015
2.98030E+06 2.30961
2.98160E+06 2.28931
2.99460E+06 2.30643
3.00000E+06 2.31364
3.00350E+06 2.31820
3.02000E+06 2.11480
3.03280E+06 1.95698
3.04330E+06 1.94259
3.06450E+06 1.66814
3.06610E+06 1.65959
3.07000E+06 1.63880
3.07670E+06 1.60311
3.08340E+06 1.60940
3.09210E+06 1.61759
3.09860E+06 1.69733
3.09970E+06 1.71076
3.10000E+06 1.71450
3.11240E+06 1.86671
3.11390E+06 1.87951
3.12000E+06 1.93158
3.14410E+06 2.13760
3.15380E+06 2.38038
3.15550E+06 2.42288
3.15750E+06 2.38517
3.16680E+06 2.20979
3.17660E+06 2.52025
3.18000E+06 2.55694
3.18230E+06 2.58182
3.18500E+06 2.50591
3.19450E+06 2.23869
3.19720E+06 2.21535
3.20150E+06 2.17826
3.20830E+06 2.11946
3.21340E+06 2.18764
3.21560E+06 2.21707
3.22450E+06 2.33619
3.23000E+06 2.32857
3.24320E+06 2.31015
3.25300E+06 2.29650
3.26190E+06 2.43369
3.26760E+06 2.43731
3.27000E+06 2.39624
3.27900E+06 2.24235
3.29230E+06 2.14072
3.29630E+06 2.11022
3.30170E+06 2.06898
3.31230E+06 2.01484
3.32000E+06 2.06829
3.32530E+06 2.10512
3.33260E+06 2.25773
3.33670E+06 2.34355
3.34720E+06 2.54933
3.36020E+06 2.48069
3.37160E+06 2.74431
3.37680E+06 2.73741
3.37970E+06 2.73347
3.38980E+06 2.46737
3.39110E+06 2.43304
3.39190E+06 2.41206
3.39330E+06 2.39549
3.39730E+06 2.34803
3.40000E+06 2.31615
3.40410E+06 2.26759
3.41630E+06 2.31818
3.44640E+06 2.16647
3.48370E+06 2.48791
3.49000E+06 2.46861
3.49430E+06 2.45543
3.49580E+06 2.45647
3.49710E+06 2.45764
3.50000E+06 2.45998
3.50600E+06 2.46473
3.51700E+06 2.47349
3.53540E+06 2.65559
3.54520E+06 2.73934
3.55600E+06 2.75077
3.56860E+06 2.54402
3.57660E+06 2.41281
3.58850E+06 2.28282
3.60000E+06 2.31125
3.61700E+06 2.35351
3.63620E+06 2.40144
3.63660E+06 2.40672
3.63850E+06 2.43325
3.65030E+06 2.59767
3.66220E+06 2.38388
3.67740E+06 2.45609
3.68460E+06 2.57051
3.68690E+06 2.60704
3.69140E+06 2.67865
3.70550E+06 2.74502
3.71200E+06 2.49659
3.71720E+06 2.54053
3.73150E+06 2.66123
3.74380E+06 2.29070
3.74560E+06 2.23654
3.75000E+06 2.21820
3.75320E+06 2.20477
3.75480E+06 2.22646
3.75482E+06 2.22673
3.76200E+06 2.32370
3.76380E+06 2.34796
3.76730E+06 2.39541
3.77000E+06 2.37058
3.77410E+06 2.33299
3.78460E+06 2.23690
3.78470E+06 2.23678
3.78660E+06 2.23951
3.78960E+06 2.24383
3.79650E+06 2.25390
3.80070E+06 2.20723
3.80950E+06 2.10935
3.83880E+06 2.13528
3.84000E+06 2.09595
3.84150E+06 2.04662
3.84750E+06 1.84938
3.85000E+06 1.85285
3.85610E+06 1.86106
3.87130E+06 2.12377
3.88860E+06 1.75981
3.90000E+06 1.82420
3.90140E+06 1.83211
3.90600E+06 1.85819
3.90700E+06 1.86381
3.91460E+06 2.14991
3.93090E+06 1.99965
3.96340E+06 2.31169
3.98610E+06 2.27409
4.00000E+06 2.30298
4.00100E+06 2.30503
4.00560E+06 2.31456
4.00760E+06 2.28633
4.01540E+06 2.17591
4.02510E+06 2.25975
4.03560E+06 2.16142
4.03562E+06 2.16122
4.04000E+06 2.12031
4.05000E+06 2.02664
4.05020E+06 2.02480
4.05024E+06 2.02445
4.05660E+06 1.96500
4.06200E+06 1.95231
4.06520E+06 1.94466
4.08800E+06 2.36667
4.09770E+06 2.39275
4.10000E+06 2.36364
4.10400E+06 2.31344
4.10420E+06 2.31074
4.12520E+06 2.04645
4.15300E+06 1.69630
4.17360E+06 1.82050
4.18760E+06 2.04303
4.20000E+06 2.33934
4.20610E+06 2.48499
4.21260E+06 2.52835
4.23290E+06 2.22523
4.23640E+06 2.17298
4.25480E+06 2.22214
4.27220E+06 2.17010
4.28410E+06 2.35501
4.28730E+06 2.35885
4.29820E+06 2.37215
4.30000E+06 2.39175
4.31660E+06 2.57169
4.34260E+06 2.21051
4.35230E+06 2.19028
4.36100E+06 2.32609
4.37070E+06 2.22206
4.39570E+06 2.22211
4.42510E+06 2.01992
4.45690E+06 1.88994
4.48630E+06 1.87245
4.50000E+06 1.81999
4.53040E+06 1.70351
4.53530E+06 1.68471
4.57080E+06 2.02561
4.58300E+06 2.16430
4.59400E+06 2.14412
4.60000E+06 2.09371
4.60260E+06 2.07189
4.62440E+06 2.07439
4.62830E+06 2.07479
4.64060E+06 2.22210
4.66870E+06 2.11523
4.69810E+06 1.87832
4.70000E+06 1.87718
4.70790E+06 1.87248
4.72260E+06 1.97067
4.75000E+06 1.98072
4.75440E+06 1.98230
4.77770E+06 2.09498
4.80950E+06 2.08050
4.84780E+06 2.01584
4.85460E+06 2.00433
4.85860E+06 1.99761
4.86150E+06 1.99266
4.88300E+06 1.95615
4.95280E+06 1.91866
4.97110E+06 1.80901
4.97930E+06 1.79636
4.98000E+06 1.79520
5.00000E+06 1.76432
5.00290E+06 1.75981
5.01640E+06 1.82920
5.05680E+06 1.84651
5.07400E+06 1.93611
5.10460E+06 1.89849
5.11970E+06 1.91501
5.13000E+06 1.92622
5.13640E+06 1.93321
5.16090E+06 2.10938
5.17190E+06 2.08344
5.18290E+06 1.98521
5.20000E+06 2.04583
5.24410E+06 2.20206
5.25000E+06 2.20380
5.27000E+06 2.21021
5.27110E+06 2.21048
5.29070E+06 1.96206
5.30000E+06 1.93733
5.31020E+06 1.91009
5.32980E+06 2.02284
5.34940E+06 1.98829
5.34980E+06 1.99013
5.35000E+06 1.99125
5.36290E+06 2.06034
5.39800E+06 2.07682
5.39960E+06 2.07798
5.40000E+06 2.07480
5.40470E+06 2.04143
5.42160E+06 1.92163
5.44370E+06 1.88120
5.45960E+06 2.24515
5.46570E+06 2.34919
5.48410E+06 1.95920
5.49630E+06 1.97937
5.50000E+06 1.92930
5.51380E+06 1.74250
5.52890E+06 1.84071
5.54240E+06 2.02558
5.56420E+06 1.98810
5.57230E+06 2.03542
5.58600E+06 2.11524
5.60000E+06 2.13116
5.60620E+06 2.13831
5.61600E+06 2.07810
5.61605E+06 2.07780
5.63000E+06 1.99199
5.63300E+06 1.97372
5.65990E+06 1.90430
5.72160E+06 1.88350
5.73720E+06 1.87830
5.75000E+06 1.87550
5.77000E+06 1.87121
5.77260E+06 1.87060
5.77263E+06 1.87059
5.80000E+06 1.86481
5.85000E+06 1.85411
5.88000E+06 1.84761
5.90500E+06 1.84211
5.90560E+06 1.84209
5.90810E+06 1.84158
5.91280E+06 1.84061
5.93000E+06 1.83680
5.95210E+06 1.83208
5.95500E+06 1.84410
5.96890E+06 1.90141
5.98740E+06 1.74250
6.00000E+06 1.73581
6.00920E+06 1.73093
6.01270E+06 1.74840
6.01272E+06 1.74850
6.02500E+06 1.81010
6.04780E+06 1.92452
6.05000E+06 1.92574
6.06460E+06 1.93319
6.07810E+06 1.75120
6.10000E+06 1.82292
6.12500E+06 1.90478
6.12840E+06 1.91590
6.14020E+06 2.11230
6.15000E+06 2.13525
6.15870E+06 2.15575
6.17500E+06 2.10448
6.17710E+06 2.09788
6.20000E+06 1.92440
6.20570E+06 1.88119
6.21630E+06 1.92292
6.22920E+06 1.97359
6.25000E+06 1.98041
6.26450E+06 1.98521
6.30000E+06 1.86299
6.30480E+06 1.84650
6.33000E+06 1.95379
6.33330E+06 1.96789
6.34520E+06 1.87839
6.35000E+06 1.84231
6.36000E+06 1.76659
6.36020E+06 1.76560
6.37000E+06 1.73571
6.38000E+06 1.70532
6.38200E+06 1.69920
6.40000E+06 1.69920
6.40550E+06 1.69919
6.41280E+06 1.75540
6.41820E+06 1.79699
6.41900E+06 1.80321
6.42510E+06 1.80402
6.42690E+06 1.80422
6.43000E+06 1.80460
6.44200E+06 1.80611
6.44910E+06 1.80701
6.46430E+06 1.80899
6.48780E+06 1.71650
6.50000E+06 1.79760
6.51300E+06 1.88410
6.53000E+06 1.96880
6.54490E+06 2.04315
6.54510E+06 2.04305
6.56510E+06 2.05738
6.58000E+06 1.95280
6.59020E+06 1.88121
6.60000E+06 1.87331
6.62000E+06 1.85720
6.65000E+06 1.83310
6.66920E+06 1.81761
6.71790E+06 1.67610
6.72500E+06 1.67771
6.76990E+06 1.68761
6.78000E+06 1.74760
6.79180E+06 1.81759
6.80000E+06 1.83920
6.82000E+06 1.89201
6.82030E+06 1.89269
6.82500E+06 1.87550
6.83370E+06 1.84360
6.85000E+06 1.70490
6.86730E+06 1.55759
6.87500E+06 1.59940
6.89920E+06 1.73074
6.90000E+06 1.72990
6.92500E+06 1.70018
6.93000E+06 1.69430
6.93340E+06 1.69021
6.94290E+06 1.67889
6.95000E+06 1.68019
6.96000E+06 1.68209
6.97500E+06 1.68478
6.98990E+06 1.68756
7.00000E+06 1.71420
7.00110E+06 1.71719
7.00980E+06 1.74021
7.01000E+06 1.74073
7.01830E+06 1.76270
7.02500E+06 1.76210
7.05000E+06 1.76000
7.05020E+06 1.75980
7.07500E+06 1.60879
7.07520E+06 1.60669
7.10000E+06 1.79601
7.10020E+06 1.79738
7.11610E+06 1.82339
7.12500E+06 1.73490
7.14340E+06 1.55181
7.15000E+06 1.57940
7.16620E+06 1.64719
7.17500E+06 1.61230
7.18440E+06 1.57491
7.20000E+06 1.72912
7.20720E+06 1.80032
7.22080E+06 1.74541
7.22500E+06 1.72622
7.23000E+06 1.70336
7.24360E+06 1.64138
7.25000E+06 1.67811
7.26630E+06 1.77139
7.27500E+06 1.76280
7.30000E+06 1.73819
7.32500E+06 1.71348
7.35000E+06 1.68887
7.37500E+06 1.66432
7.40000E+06 1.63966
7.41870E+06 1.62119
7.42200E+06 1.62907
7.42500E+06 1.63630
7.44000E+06 1.67244
7.45000E+06 1.69637
7.47000E+06 1.74456
7.47500E+06 1.75647
7.48240E+06 1.77430
7.50000E+06 1.80184
7.51200E+06 1.82051
7.52500E+06 1.80197
7.55000E+06 1.76652
7.56890E+06 1.73961
7.57500E+06 1.74791
7.59910E+06 1.78097
7.60000E+06 1.78207
7.62500E+06 1.81627
7.62810E+06 1.82046
7.65000E+06 1.82046
7.65760E+06 1.82048
7.67500E+06 1.78739
7.70000E+06 1.73981
7.71680E+06 1.70779
7.72500E+06 1.70259
7.75000E+06 1.68669
7.75300E+06 1.68483
7.77500E+06 1.67098
7.77590E+06 1.67027
7.79090E+06 1.63985
7.80000E+06 1.62145
7.81010E+06 1.60092
7.82500E+06 1.65768
7.85000E+06 1.75292
7.86700E+06 1.81761
7.87500E+06 1.80000
7.90000E+06 1.74490
7.90110E+06 1.74249
7.92500E+06 1.71449
7.95000E+06 1.68520
7.96000E+06 1.67339
7.97500E+06 1.65585
7.98980E+06 1.63849
8.00000E+06 1.67406
8.02000E+06 1.74378
8.02500E+06 1.76122
8.02620E+06 1.76558
8.05000E+06 1.77289
8.07500E+06 1.78044
8.09220E+06 1.78579
8.10000E+06 1.77020
8.12500E+06 1.72035
8.13180E+06 1.70679
8.14860E+06 1.67329
8.15000E+06 1.67057
8.17500E+06 1.62069
8.18780E+06 1.59520
8.20000E+06 1.58630
8.21960E+06 1.57199
8.22500E+06 1.58439
8.23000E+06 1.59578
8.25000E+06 1.64159
8.25370E+06 1.65011
8.27000E+06 1.61768
8.27500E+06 1.60783
8.30000E+06 1.55798
8.32200E+06 1.51430
8.32500E+06 1.52604
8.35000E+06 1.62343
8.35610E+06 1.64724
8.37500E+06 1.64844
8.40000E+06 1.64995
8.42000E+06 1.65112
8.42500E+06 1.65143
8.45000E+06 1.65299
8.47500E+06 1.65446
8.50000E+06 1.65612
8.52000E+06 1.65727
8.52500E+06 1.65759
8.55000E+06 1.65920
8.57500E+06 1.66070
8.60000E+06 1.66220
8.62500E+06 1.66378
8.65000E+06 1.66526
8.67500E+06 1.66690
8.68370E+06 1.66741
8.70000E+06 1.66902
8.72500E+06 1.67140
8.75000E+06 1.67378
8.77500E+06 1.67626
8.79000E+06 1.67778
8.80000E+06 1.67874
8.82000E+06 1.68069
8.82500E+06 1.68124
8.83160E+06 1.68185
8.85000E+06 1.66225
8.86000E+06 1.65157
8.87500E+06 1.63563
8.90000E+06 1.60906
8.90220E+06 1.60667
8.91000E+06 1.60413
8.92500E+06 1.59901
8.95000E+06 1.59057
8.97500E+06 1.58225
8.97950E+06 1.58066
8.98000E+06 1.58076
9.00000E+06 1.58652
9.01000E+06 1.58934
9.03470E+06 1.59630
9.05000E+06 1.60061
9.07000E+06 1.60624
9.08200E+06 1.60963
9.12500E+06 1.59325
9.15000E+06 1.58366
9.20000E+06 1.56468
9.23080E+06 1.55290
9.26400E+06 1.54031
9.35000E+06 1.60023
9.43390E+06 1.65872
9.49730E+06 1.65587
9.50000E+06 1.65578
9.58000E+06 1.65220
9.60000E+06 1.65129
9.62500E+06 1.65022
9.65000E+06 1.64913
9.75000E+06 1.64465
9.76550E+06 1.64398
9.85000E+06 1.64029
9.90000E+06 1.63811
9.95000E+06 1.63592
9.95570E+06 1.63564
9.98000E+06 1.63235
1.00000E+07 1.62965
1.00500E+07 1.62286
1.01000E+07 1.61617
1.01500E+07 1.60939
1.02350E+07 1.59802
1.02500E+07 1.59973
1.04000E+07 1.61668
1.05000E+07 1.62787
1.07500E+07 1.65620
1.09260E+07 1.67613
1.10000E+07 1.67635
1.15000E+07 1.67765
1.17500E+07 1.67820
1.19000E+07 1.67855
1.20000E+07 1.67893
1.20190E+07 1.67891
1.20300E+07 1.67911
1.21000E+07 1.68039
1.22000E+07 1.68216
1.23000E+07 1.68403
1.25000E+07 1.68756
1.26000E+07 1.68943
1.29500E+07 1.69570
1.29587E+07 1.69556
1.30000E+07 1.69650
1.32000E+07 1.70010
1.32400E+07 1.70090
1.33000E+07 1.70190
1.34600E+07 1.70481
1.37900E+07 1.71080
1.39480E+07 1.71361
1.40000E+07 1.71510
1.40200E+07 1.71565
1.41190E+07 1.71839
1.44000E+07 1.72640
1.47100E+07 1.73520
1.50000E+07 1.74340
1.56830E+07 1.76270
1.60000E+07 1.76909
1.70000E+07 1.78931
1.70400E+07 1.79011
1.74950E+07 1.79930
1.80000E+07 1.80951
1.84010E+07 1.81760
1.90000E+07 1.83170
1.99470E+07 1.85402
2.00000E+07 1.85522