Mg-24(n,tot) ENDF/B-VII.1
Energy(eV) XS(b)
1.00000E-05 6.27798
1.25000E-05 6.01094
1.50000E-05 5.81381
2.00000E-05 5.53711
2.75000E-05 5.27384
3.50000E-05 5.10057
4.25000E-05 4.97548
5.00000E-05 4.87972
6.25000E-05 4.76029
7.50000E-05 4.67214
0.000100000 4.54839
0.000125000 4.46395
0.000150000 4.40161
0.000200000 4.31411
0.000275000 4.23086
0.000350000 4.17606
0.000425000 4.13651
0.000500000 4.10623
0.000625000 4.06846
0.000750000 4.04058
0.00100000 4.00145
0.00125000 3.97475
0.00150000 3.95504
0.00200000 3.92737
0.00275000 3.90104
0.00350000 3.88371
0.00425000 3.87120
0.00500000 3.86163
0.00625000 3.84968
0.00750000 3.84087
0.0100000 3.82849
0.0125000 3.82005
0.0150000 3.81382
0.0200000 3.80507
0.0253000 3.79879
0.0314750 3.79359
0.0376500 3.78973
0.0500000 3.78428
0.0625000 3.78050
0.0750000 3.77771
0.100000 3.77380
0.125000 3.77113
0.150000 3.76916
0.200000 3.76639
0.275000 3.76376
0.350000 3.76202
0.500000 3.75981
0.750000 3.75774
1.00000 3.75650
1.50000 3.75503
2.00000 3.75415
2.75000 3.75331
3.50000 3.75276
5.00000 3.75206
7.50000 3.75139
10.0000 3.75098
15.0000 3.75049
20.0000 3.75019
27.5000 3.74989
35.0000 3.74968
50.0000 3.74938
75.0000 3.74905
100.000 3.74880
150.000 3.74840
200.000 3.74807
275.000 3.74761
350.000 3.74717
500.000 3.74635
750.000 3.74504
1000.00 3.74377
1500.00 3.74126
2000.00 3.73881
2750.00 3.73518
3500.00 3.73163
5000.00 3.72473
7500.00 3.71380
10000.0 3.70362
15000.0 3.68576
20000.0 3.67188
26587.3 3.66188
33174.6 3.66623
38587.3 3.68750
44000.0 3.73612
45174.6 3.75205
45761.8 3.76101
46055.5 3.76604
46202.3 3.76981
46275.7 3.77640
46312.4 3.79787
46330.7 3.87692
46335.3 3.95400
46339.9 4.15796
46342.2 4.41760
46344.5 5.05298
46345.7 5.79062
46346.8 7.36042
46347.4 8.93694
46348.0 11.6737
46348.5 16.9513
46348.8 21.5098
46349.1 27.8278
46349.6 42.5055
46350.0 52.0372
46350.5 42.1645
46350.9 27.8281
46351.4 18.6329
46351.8 13.4608
46352.3 10.4682
46352.7 8.66660
46353.6 6.66766
46354.5 5.67181
46356.3 4.76345
46358.0 4.37746
46361.6 4.06364
46365.2 3.94277
46372.3 3.85063
46379.4 3.81685
46407.9 3.78330
46465.0 3.77543
46579.0 3.77515
46807.1 3.77859
47263.2 3.78682
48175.5 3.80501
50000.0 3.84822
57249.5 4.16286
60874.3 4.48172
64499.0 5.03539
68123.8 6.07311
71748.5 8.24879
73560.9 10.2832
75373.3 13.6264
77185.6 19.4377
78998.0 29.9649
81249.0 53.4067
82374.5 66.0821
83500.0 71.1746
88002.0 32.8871
89501.8 24.5316
91001.5 19.1314
92501.3 15.5507
94001.0 13.0892
97000.5 10.0469
100000 8.31776
104794 6.78080
109587 5.94066
114381 5.42915
119175 5.09444
128762 4.70221
138349 4.50397
157524 4.40324
167111 4.46418
171905 4.52379
174302 4.56176
175500 4.58296
176099 4.59424
176399 4.60044
176549 4.60513
176623 4.61335
176661 4.63943
176680 4.73020
176689 5.02632
176694 5.83189
176696 7.38920
176697 9.55952
176698 14.4902
176699 20.5212
176700 24.4166
176701 20.5046
176702 14.4696
176703 10.1116
176704 7.91671
176706 6.17256
176709 5.17033
176717 4.77716
176733 4.65345
176764 4.61903
176826 4.61108
176950 4.61124
177199 4.61565
177695 4.62567
178689 4.64678
180676 4.69253
184651 4.79912
192601 5.08327
208500 6.05378
220000 7.26158
220000 6.98948
220001 6.98966
220001 6.98983
220002 6.99018
220004 6.99088
220008 6.99224
220011 6.98655
220022 6.98308
220032 6.99514
220033 6.99375
220036 6.99382
220039 6.99389
220044 6.99403
220048 6.99927
220055 6.99610
220064 6.99698
220067 6.99152
220078 6.98804
220089 6.99297
220096 7.00163
220111 7.00039
220133 7.00994
220155 7.01946
220177 7.02091
220186 7.01227
220200 7.01842
220211 7.02180
220222 7.02107
220230 7.01742
220233 7.02035
220244 7.02736
220255 7.03026
220266 7.02913
220274 7.02554
220277 7.02829
220288 7.03430
220299 7.03673
220310 7.03574
220318 7.02974
220322 7.03111
220333 7.03607
220344 7.03813
220355 7.03746
220361 7.03451
220374 7.04156
220392 7.04865
220407 7.04770
220420 7.04402
220422 7.04543
220430 7.04867
220437 7.05191
220452 7.05549
220467 7.05643
220481 7.05713
220493 7.05427
220496 7.05591
220504 7.05869
220511 7.06147
220526 7.06514
220541 7.06706
220556 7.06737
220571 7.06622
220580 7.06548
220585 7.06782
220600 7.07239
220615 7.07578
220630 7.07810
220645 7.07942
220660 7.07980
220675 7.07933
220682 7.07909
220689 7.08176
220704 7.08604
220719 7.08962
220749 7.09488
220779 7.09787
220808 7.09935
220828 7.09883
220838 7.10181
220868 7.10930
220897 7.11558
220927 7.12049
220957 7.12434
220986 7.12737
221016 7.12938
221046 7.13063
221062 7.13098
221076 7.13427
221105 7.14051
221135 7.14627
221165 7.15150
221194 7.15619
221224 7.16053
221254 7.16448
221284 7.16807
221313 7.17126
221343 7.17425
221373 7.17694
221402 7.17931
221412 7.18007
221432 7.18406
221462 7.18977
221492 7.19529
221521 7.20043
221551 7.20560
221581 7.21061
221640 7.22000
221700 7.22907
221759 7.23750
221812 7.24478
221818 7.24542
221833 7.24716
221848 7.24889
221878 7.25236
221937 7.25879
221997 7.26515
222056 7.27108
222112 7.27651
222115 7.27699
222123 7.27817
222130 7.27935
222145 7.28171
222175 7.28642
222234 7.29543
222294 7.30455
222353 7.31329
222413 7.32215
222472 7.33065
222531 7.33905
222591 7.34764
222650 7.35587
222710 7.36431
222769 7.37241
222829 7.38073
222888 7.38873
222947 7.39667
223007 7.40485
223066 7.41272
223126 7.42083
223244 7.43642
223363 7.45219
223482 7.46787
223601 7.48349
223629 7.48716
223720 7.50163
223839 7.52051
223958 7.53937
224076 7.55792
224195 7.57675
224314 7.59560
224433 7.61446
224552 7.63332
224671 7.65220
224789 7.67081
224908 7.68975
225027 7.70871
225146 7.72771
225265 7.74674
225369 7.76329
225384 7.76557
225443 7.77399
225502 7.78242
225621 7.79962
225740 7.81685
225859 7.83413
226097 7.86882
226334 7.90339
226572 7.93848
226663 7.95195
226810 7.97636
227047 8.01570
227285 8.05560
227523 8.09570
227760 8.13570
227998 8.17623
228279 8.22427
228561 8.27296
228842 8.32163
228927 8.33636
229123 8.36757
229404 8.41248
229463 8.42198
229686 8.46161
229967 8.51162
230248 8.56195
230529 8.61257
230811 8.66386
231092 8.71508
231373 8.76659
231936 8.87085
232485 8.97341
232498 8.97567
232533 8.98183
232568 8.98800
232639 9.00034
232780 9.02506
233061 9.07474
233197 9.09877
233623 9.18101
234186 9.29074
234748 9.40100
235311 9.51250
235873 9.62439
236043 9.65846
236436 9.73397
236931 9.82935
236998 9.84312
237139 9.87214
237280 9.90118
237561 9.95938
238123 10.0757
239248 10.3097
239601 10.3834
240373 10.5424
241499 10.7743
241515 10.7774
241550 10.7846
241584 10.7917
241654 10.8060
241792 10.8346
242070 10.8917
242624 11.0057
243220 11.1273
243749 11.2364
244739 11.4380
244874 11.4660
245155 11.5238
245437 11.5812
245999 11.6954
246093 11.7142
246351 11.7673
246609 11.8200
247124 11.9245
247302 11.9601
247776 12.0571
248249 12.1527
248378 12.1785
248858 12.2763
249337 12.3725
249374 12.3803
249452 12.3963
249531 12.4122
249687 12.4440
250000 12.5069
250000 12.0667
250001 12.0668
250002 12.0669
250003 12.0671
250006 12.0676
250012 12.0685
250024 12.0703
250048 12.0740
250096 12.0813
250192 12.0958
250499 12.1438
250954 12.2131
251631 12.3170
252235 12.4096
252749 12.4885
252775 12.4924
252854 12.5045
252932 12.5165
253089 12.5402
253251 12.5649
253412 12.5894
253573 12.6139
253594 12.6171
253664 12.6263
253734 12.6354
253896 12.6568
254057 12.6779
254218 12.6989
254379 12.7200
254540 12.7410
254701 12.7621
254822 12.7780
254943 12.7939
254999 12.8013
255064 12.8097
255185 12.8254
255266 12.8360
255346 12.8462
255427 12.8568
255507 12.8672
255588 12.8777
255669 12.8883
255749 12.8986
255830 12.9092
255870 12.9143
255910 12.9194
255951 12.9250
255991 12.9301
256031 12.9353
256072 12.9408
256112 12.9459
256152 12.9510
256193 12.9565
256233 12.9618
256273 12.9668
256313 12.9720
256354 12.9775
256394 12.9828
256414 12.9853
256434 12.9879
256454 12.9906
256475 12.9935
256495 12.9961
256515 12.9987
256535 13.0014
256555 13.0040
256575 13.0066
256596 13.0096
256616 13.0123
256636 13.0149
256656 13.0176
256676 13.0203
256696 13.0229
256711 13.0250
256716 13.0272
256726 13.0316
256737 13.0368
256747 13.0412
256757 13.0457
256767 13.0501
256777 13.0545
256787 13.0591
256797 13.0634
256807 13.0680
256817 13.0724
256827 13.0769
256837 13.0814
256847 13.0859
256857 13.0904
256868 13.0961
256878 13.1006
256888 13.1052
256898 13.1099
256908 13.1145
256918 13.1192
256922 13.1212
256928 13.1300
256938 13.1442
256943 13.1513
256948 13.1584
256953 13.1656
256958 13.1728
256966 13.1843
256974 13.1958
256982 13.2073
256990 13.2190
256994 13.2248
256999 13.2342
257003 13.2401
257006 13.2448
257007 13.2484
257011 13.2622
257015 13.2759
257019 13.2897
257023 13.3036
257027 13.3174
257031 13.3314
257035 13.3453
257039 13.3594
257043 13.3734
257047 13.3876
257051 13.4015
257051 13.4017
257052 13.4049
257052 13.4081
257053 13.4146
257055 13.4273
257059 13.4544
257063 13.4817
257067 13.5090
257071 13.5364
257075 13.5639
257079 13.5916
257080 13.5993
257083 13.6347
257087 13.6805
257091 13.7264
257095 13.7725
257097 13.7944
257097 13.7969
257098 13.8055
257098 13.8141
257099 13.8300
257101 13.8649
257103 13.8999
257105 13.9351
257107 13.9702
257109 14.0054
257111 14.0389
257111 14.0425
257112 14.0549
257112 14.0675
257113 14.0906
257115 14.1415
257117 14.1927
257119 14.2438
257121 14.2951
257122 14.3221
257123 14.3594
257125 14.4304
257127 14.5016
257129 14.5729
257130 14.6049
257131 14.6509
257134 14.8413
257136 14.9412
257137 14.9878
257138 15.0488
257140 15.1768
257142 15.3055
257143 15.3705
257144 15.4551
257146 15.6172
257148 15.7719
257148 15.7904
257149 15.8408
257149 15.8923
257150 15.9879
257152 16.1966
257153 16.2959
257154 16.4243
257156 16.6838
257157 16.8026
257157 16.8351
257158 16.9123
257158 16.9755
257159 17.1316
257160 17.2721
257160 17.3019
257161 17.3929
257161 17.4675
257162 17.6563
257163 17.8458
257164 18.0188
257164 18.0663
257165 18.1802
257165 18.2736
257166 18.5041
257167 18.7117
257167 18.7544
257168 18.8875
257168 18.9966
257169 19.2715
257170 19.5197
257170 19.5812
257171 19.7397
257171 19.8698
257172 20.1905
257173 20.4873
257173 20.5699
257174 20.7546
257174 20.9062
257175 21.2416
257175 21.3150
257176 21.5265
257176 21.6999
257177 22.1324
257178 22.5248
257178 22.6219
257179 22.8629
257179 23.0603
257180 23.5043
257180 23.6164
257181 24.0407
257181 24.1417
257182 24.4233
257182 24.6531
257183 25.2136
257184 25.8486
257186 27.1048
257187 27.7416
257188 28.4006
257190 29.7117
257191 30.3809
257192 30.9825
257193 31.5231
257193 31.6241
257194 32.0558
257194 32.1653
257195 32.3998
257195 32.5757
257196 32.9728
257196 33.0252
257197 33.2982
257197 33.3625
257198 33.4776
257198 33.5527
257199 33.7206
257199 33.7114
257200 33.7536
257200 33.7688
257201 33.6863
257201 33.6610
257202 33.4837
257202 33.5787
257203 33.3679
257203 33.2971
257204 33.0427
257204 33.0082
257205 32.8044
257205 32.6279
257206 32.2456
257206 32.1519
257207 31.7557
257207 31.6088
257208 31.2578
257208 30.8970
257209 30.2275
257210 29.3173
257212 28.0793
257214 26.9007
257214 26.7982
257215 26.5018
257215 26.2095
257216 25.6955
257217 25.1691
257217 25.0579
257218 24.7914
257218 24.5826
257219 24.1029
257219 24.0003
257220 23.7537
257220 23.5609
257220 23.4619
257221 23.1234
257221 23.0281
257222 22.8020
257222 22.6258
257223 22.2310
257223 22.0351
257224 21.7509
257224 21.4727
257225 20.9867
257226 20.6478
257226 20.6026
257227 20.4374
257227 20.3091
257228 20.0088
257228 19.9643
257229 19.8219
257229 19.7113
257230 19.4273
257231 19.1696
257231 19.1203
257232 19.0006
257232 18.9076
257233 18.6693
257234 18.4531
257234 18.4066
257235 18.3036
257235 18.2236
257236 18.0230
257237 17.8414
257237 17.7565
257238 17.6310
257238 17.5081
257239 17.2935
257240 17.1338
257241 16.9884
257241 16.9720
257242 16.9058
257242 16.8544
257243 16.7225
257244 16.5899
257245 16.4699
257245 16.4480
257246 16.3926
257246 16.3495
257247 16.2394
257248 16.1395
257248 16.1114
257249 16.0478
257249 15.9979
257250 15.9420
257252 15.7650
257252 15.7315
257253 15.6506
257254 15.5820
257255 15.4505
257257 15.3110
257259 15.1772
257259 15.1674
257260 15.1399
257260 15.1131
257261 15.0666
257263 14.9593
257265 14.8566
257265 14.8397
257266 14.7945
257267 14.7560
257268 14.6817
257270 14.6044
257272 14.5263
257274 14.4519
257274 14.4466
257275 14.4324
257275 14.4185
257276 14.3943
257278 14.3387
257280 14.2827
257283 14.1723
257285 14.1211
257285 14.1194
257286 14.1099
257286 14.1006
257287 14.0843
257289 14.0470
257291 14.0094
257293 13.9716
257295 13.9338
257297 13.8809
257298 13.8640
257300 13.8401
257302 13.8160
257304 13.7919
257306 13.7675
257308 13.7431
257310 13.7185
257315 13.6492
257315 13.6477
257316 13.6439
257316 13.6402
257317 13.6331
257319 13.6201
257323 13.5915
257328 13.5478
257332 13.5193
257336 13.4907
257340 13.4562
257341 13.4512
257345 13.4368
257349 13.4221
257353 13.4073
257358 13.3846
257362 13.3698
257366 13.3551
257371 13.3333
257375 13.3186
257379 13.3041
257379 13.3036
257380 13.3028
257380 13.3020
257381 13.3004
257383 13.2974
257388 13.2871
257392 13.2808
257396 13.2744
257401 13.2645
257405 13.2582
257409 13.2517
257414 13.2422
257418 13.2359
257422 13.2295
257426 13.2231
257435 13.2075
257443 13.1935
257444 13.1928
257448 13.1909
257452 13.1893
257461 13.1844
257469 13.1808
257478 13.1761
257487 13.1715
257495 13.1680
257504 13.1634
257512 13.1598
257521 13.1553
257530 13.1510
257538 13.1475
257547 13.1431
257555 13.1395
257564 13.1352
257572 13.1315
257581 13.1273
257589 13.1235
257590 13.1234
257594 13.1230
257598 13.1227
257607 13.1220
257615 13.1213
257624 13.1206
257633 13.1198
257650 13.1184
257667 13.1171
257684 13.1158
257701 13.1145
257719 13.1132
257736 13.1119
257744 13.1113
257753 13.1118
257770 13.1127
257787 13.1135
257804 13.1145
257822 13.1156
257839 13.1164
257856 13.1174
257873 13.1183
257890 13.1192
257908 13.1203
257925 13.1211
257959 13.1230
257993 13.1249
258028 13.1270
258062 13.1289
258097 13.1309
258131 13.1328
258165 13.1348
258200 13.1369
258234 13.1388
258268 13.1407
258303 13.1427
258337 13.1447
258371 13.1467
258440 13.1506
258509 13.1547
258578 13.1586
258646 13.1626
258715 13.1665
258784 13.1706
258853 13.1746
258921 13.1785
258990 13.1826
259127 13.1905
259265 13.1986
259402 13.2065
259499 13.2123
259540 13.2146
259677 13.2224
259952 13.2380
260227 13.2537
260502 13.2693
260777 13.2849
261052 13.3006
261602 13.3320
261606 13.3323
261615 13.3325
261624 13.3328
261642 13.3333
261678 13.3342
261749 13.3362
261950 13.3411
262151 13.3456
262701 13.3589
263801 13.3857
263803 13.3857
263809 13.3858
263815 13.3859
263828 13.3860
263852 13.3863
263901 13.3869
263999 13.3879
264249 13.3894
264499 13.3901
265000 13.3892
266000 13.3783
266249 13.3752
267127 13.3573
268005 13.3306
268499 13.3015
268875 13.2771
270009 13.2288
270749 13.1766
271750 13.0967
272014 13.0807
272999 13.0000
274018 12.9074
274625 12.8382
275896 12.7103
277166 12.5727
277499 12.5299
277501 12.5295
277508 12.5287
277516 12.5278
277530 12.5262
277559 12.5229
277617 12.5162
277750 12.5007
277884 12.4851
278150 12.4536
278683 12.3898
279749 12.2586
280314 12.1877
280376 12.1789
280579 12.1520
280782 12.1249
281188 12.0704
282000 11.9601
283251 11.7889
284250 11.6558
286500 11.3568
286609 11.3425
286877 11.3044
287144 11.2662
287680 11.1898
288750 11.0371
289001 11.0023
290001 10.8632
291000 10.7248
291876 10.6079
293250 10.4216
294752 10.2275
295500 10.1289
296052 10.0592
297627 9.85929
297750 9.84323
298031 9.80783
298313 9.77261
298875 9.70260
300000 9.56451
300502 9.50590
302250 9.29555
303377 9.16785
304500 9.03635
306252 8.84272
306495 8.81487
306750 8.78738
307313 8.72884
307875 8.67098
309000 8.55734
309127 8.54497
309392 8.51757
309658 8.49032
310189 8.43630
311250 8.33003
312002 8.25743
312991 8.15777
313500 8.11226
314878 7.99345
317753 7.74140
318000 7.71922
318743 7.65322
319486 7.58825
320628 7.50037
322501 7.35168
322734 7.33350
323500 7.27908
323503 7.27887
323513 7.27813
323523 7.27740
323542 7.27593
323581 7.27300
323659 7.26715
323815 7.25547
324127 7.23224
324751 7.18624
325982 7.09667
326378 7.07073
327001 7.02756
329123 6.88353
329251 6.87578
329253 6.87570
329257 6.87541
329262 6.87513
329271 6.87455
329288 6.87340
329323 6.87111
329394 6.86652
329534 6.85737
329815 6.83915
330377 6.80306
331501 6.73218
332128 6.69292
332263 6.68400
332635 6.66251
333007 6.64120
333751 6.59914
335004 6.52883
336001 6.47073
337879 6.36287
338251 6.34078
338545 6.32316
339523 6.27466
340501 6.22723
340754 6.21491
341753 6.16388
342751 6.11392
343629 6.07013
344348 6.03351
344827 6.00875
345001 6.00127
345706 5.97074
346410 5.94070
346504 5.93672
346878 5.92011
347251 5.90363
348315 5.85665
349379 5.81072
349501 5.80520
349903 5.78685
350305 5.76864
351108 5.73266
351751 5.70905
352255 5.69045
354001 5.62349
355130 5.58087
356251 5.53695
357390 5.49274
358005 5.47350
358501 5.45706
359627 5.41985
360752 5.38370
360880 5.37962
361145 5.37052
361411 5.36149
361941 5.34359
363002 5.30851
363672 5.28658
363755 5.28445
363942 5.27918
364129 5.27394
364504 5.26355
365252 5.24314
366630 5.20636
367502 5.18226
368068 5.16680
369505 5.12696
369752 5.11995
369953 5.11423
370448 5.10391
370943 5.09383
372002 5.07154
372381 5.06373
373818 5.03336
374252 5.02392
375256 5.00265
376235 4.98139
376502 4.97784
376693 4.97532
377412 4.96484
378131 4.95508
378752 4.94598
379568 4.93470
380946 4.91493
381002 4.91468
381006 4.91465
381020 4.91455
381035 4.91444
381063 4.91422
381120 4.91380
381235 4.91297
381464 4.91137
381921 4.90845
382836 4.90378
383252 4.90070
384666 4.89265
385502 4.88654
385657 4.88557
386077 4.88626
386496 4.88739
386627 4.88722
386928 4.88697
387228 4.88696
387752 4.89115
388326 4.89657
390002 4.90905
390156 4.91065
390368 4.91199
391071 4.92567
391127 4.92664
391342 4.93049
391557 4.93451
391986 4.94311
392252 4.94779
392901 4.96050
393377 4.96904
393509 4.97160
393816 4.98120
394502 5.00126
394731 5.00852
395080 5.01836
395627 5.04136
395646 5.04220
395708 5.04456
395769 5.04695
395893 5.05179
396140 5.06174
396633 5.08280
396752 5.08730
397094 5.10087
397435 5.11522
397619 5.12638
397878 5.14071
398606 5.18353
399003 5.20556
399593 5.24068
399791 5.25164
400128 5.27694
400368 5.29555
401143 5.35385
401253 5.36180
401361 5.36967
401640 5.39527
401919 5.42172
402378 5.46312
402694 5.49309
402932 5.51420
403469 5.57516
403503 5.57882
403596 5.58881
403688 5.59890
403874 5.61945
404244 5.66201
404502 5.68995
404628 5.70693
405019 5.76108
405190 5.78345
405753 5.86056
405794 5.86629
405934 5.88445
406073 5.90296
406315 5.94267
406570 5.98576
406878 6.03481
407345 6.11279
407440 6.12759
407643 6.16009
408003 6.23182
408120 6.25571
408520 6.33290
408895 6.40857
409037 6.43557
409213 6.46961
409554 6.54753
409670 6.57458
409999 6.64711
410071 6.66490
410258 6.71158
410445 6.75924
410587 6.79305
410784 6.84095
411104 6.92853
411221 6.96154
411569 7.05316
411621 7.06847
411809 7.12456
411996 7.18180
412138 7.22209
412354 7.28492
412655 7.38317
412771 7.42195
413139 7.53779
413172 7.54936
413266 7.58238
413359 7.61574
413546 7.68342
413689 7.73191
413925 7.81366
414206 7.92239
414321 7.96770
414710 8.11332
414723 8.11871
414770 8.13819
414817 8.15773
414910 8.19711
415097 8.27697
415100 8.27816
415109 8.28166
415118 8.28511
415135 8.29207
415170 8.30604
415240 8.33412
415495 8.43834
415498 8.43969
415506 8.44333
415514 8.44698
415530 8.45429
415563 8.46894
415628 8.49832
415757 8.55770
415872 8.61102
416015 8.67286
416274 8.78801
416280 8.79070
416296 8.79836
416312 8.80598
416343 8.82130
416406 8.85208
416532 8.91418
416647 8.97178
416791 9.03950
417049 9.16288
417065 9.17067
417126 9.20257
417187 9.23459
417308 9.29921
417422 9.36019
417566 9.43304
417825 9.56693
417851 9.58050
417909 9.61301
417967 9.64568
418083 9.71151
418197 9.77684
418341 9.85492
418600 9.99848
418636 10.0186
418747 10.0851
418858 10.1522
418972 10.2219
419117 10.3064
419375 10.4584
419421 10.4860
419528 10.5539
419634 10.6223
419748 10.6962
419892 10.7846
420151 10.9472
420206 10.9820
420409 11.1213
420523 11.2007
420668 11.2975
420926 11.4716
421055 11.5596
421185 11.6496
421298 11.7277
421314 11.7382
421379 11.7805
421443 11.8230
421572 11.9083
421702 11.9957
421777 12.0459
421831 12.0853
421960 12.1797
422089 12.2745
422219 12.3713
422348 12.4670
422477 12.5631
422606 12.6595
422735 12.7562
422848 12.8414
422865 12.8541
422930 12.9008
422994 12.9476
423123 13.0411
423252 13.1347
423382 13.2298
423511 13.3235
423640 13.4168
423740 13.4891
423769 13.5117
423834 13.5625
423899 13.6134
424028 13.7130
424092 13.7618
424157 13.8120
424222 13.8620
424286 13.9101
424351 13.9597
424399 13.9961
424415 14.0074
424480 14.0564
424545 14.1050
424626 14.1643
424708 14.2243
424789 14.2820
424871 14.3402
424917 14.3722
424960 14.4068
425048 14.4755
425137 14.5441
425174 14.5718
425226 14.6115
425270 14.6439
425314 14.6756
425359 14.7082
425403 14.7386
425447 14.7681
425492 14.7983
425506 14.8071
425536 14.8320
425581 14.8692
425625 14.9035
425669 14.9366
425714 14.9703
425758 15.0009
425802 15.0301
425847 15.0594
425891 15.0852
425899 15.0896
425917 15.1045
425935 15.1194
425949 15.1312
425980 15.1568
426024 15.1905
426068 15.2222
426113 15.2535
426157 15.2804
426193 15.3015
426202 15.3103
426224 15.3299
426246 15.3494
426290 15.3860
426335 15.4225
426379 15.4540
426468 15.5126
426556 15.5614
426616 15.5932
426645 15.6098
426689 15.6344
426724 15.6561
426734 15.6630
426756 15.6778
426778 15.6926
426823 15.7275
426867 15.7638
426872 15.7685
426892 15.7767
426911 15.7850
426956 15.8111
427000 15.8412
427044 15.8779
427064 15.8982
427089 15.9068
427133 15.9280
427177 15.9559
427222 15.9914
427256 16.0225
427266 16.0269
427289 16.0395
427311 16.0520
427355 16.0809
427384 16.1027
427399 16.1093
427444 16.1324
427499 16.1650
427532 16.1863
427621 16.2486
427710 16.3120
427798 16.3731
427843 16.4028
427887 16.4309
427932 16.4584
427976 16.4840
428020 16.5084
428065 16.5318
428109 16.5535
428153 16.5738
428188 16.5889
428198 16.5955
428220 16.6094
428242 16.6232
428274 16.6424
428286 16.6504
428331 16.6792
428375 16.7062
428419 16.7319
428464 16.7573
428508 16.7809
428553 16.8040
428597 16.8256
428641 16.8461
428670 16.8591
428686 16.8690
428730 16.8946
428774 16.9201
428863 16.9688
428952 17.0142
429040 17.0560
429050 17.0607
429090 17.0815
429129 17.1021
429210 17.1424
429290 17.1798
429371 17.2160
429452 17.2502
429494 17.2671
429515 17.2754
429567 17.2948
429619 17.3140
429635 17.3196
429669 17.3346
429703 17.3496
429787 17.3846
429825 17.3995
429879 17.4250
429971 17.4659
430000 17.4781
430064 17.5047
430156 17.5394
430179 17.5476
430248 17.5706
430294 17.5849
430340 17.5980
430386 17.6101
430407 17.6151
430432 17.6251
430479 17.6433
430525 17.6593
430571 17.6739
430600 17.6821
430617 17.6886
430663 17.7044
430709 17.7185
430755 17.7307
430801 17.7408
430817 17.7437
430847 17.7575
430893 17.7764
430940 17.7938
430986 17.8074
431032 17.8182
431078 17.8259
431124 17.8303
431142 17.8306
431170 17.8438
431216 17.8619
431262 17.8762
431308 17.8865
431355 17.8942
431375 17.8944
431401 17.8988
431447 17.9014
431468 17.9010
431493 17.9102
431539 17.9236
431631 17.9414
431677 17.9469
431723 17.9513
431769 17.9555
431816 17.9624
431862 17.9695
431908 17.9797
431933 17.9877
431954 17.9838
432000 17.9801
432046 17.9826
432092 17.9922
432133 18.0074
432138 18.0062
432150 18.0052
432184 18.0059
432231 18.0150
432266 18.0272
432277 18.0258
432300 18.0264
432323 18.0270
432369 18.0347
432399 18.0434
432415 18.0404
432461 18.0367
432553 18.0414
432645 18.0577
432669 18.0635
432738 18.0642
432830 18.0686
432876 18.0707
432922 18.0727
432926 18.0723
432937 18.0737
432947 18.0751
432968 18.0779
433014 18.0826
433060 18.0866
433107 18.0887
433153 18.0905
433199 18.0913
433245 18.0909
433291 18.0892
433337 18.0863
433383 18.0823
433429 18.0772
433475 18.0709
433488 18.0688
433521 18.0694
433568 18.0686
433614 18.0673
433660 18.0649
433701 18.0619
433706 18.0620
433718 18.0619
433729 18.0618
433752 18.0615
433798 18.0602
433844 18.0578
433936 18.0506
434029 18.0394
434121 18.0256
434170 18.0168
434213 18.0128
434305 18.0019
434397 17.9882
434476 17.9744
434490 17.9728
434536 17.9674
434582 17.9618
434674 17.9486
434766 17.9333
434859 17.9156
434951 17.8968
435043 17.8762
435135 17.8539
435227 17.8301
435251 17.8235
435320 17.8090
435412 17.7886
435504 17.7670
435596 17.7440
435688 17.7197
435781 17.6937
435873 17.6672
435965 17.6396
436026 17.6207
436057 17.6127
436149 17.5885
436242 17.5625
436334 17.5365
436426 17.5093
436611 17.4519
436795 17.3918
436801 17.3899
436826 17.3833
436850 17.3766
436899 17.3632
436979 17.3358
437164 17.2698
437348 17.2020
437533 17.1309
437717 17.0584
437901 16.9836
438086 16.9061
438270 16.8275
438352 16.7916
438455 16.7525
438639 16.6813
438824 16.6080
439008 16.5341
439083 16.5035
439192 16.4548
439377 16.3706
439561 16.2862
439746 16.2000
439902 16.1271
439930 16.1147
440022 16.0738
440114 16.0328
440299 15.9493
440483 15.8660
440668 15.7814
440852 15.6972
441221 15.5269
441452 15.4199
441590 15.3560
441959 15.1853
442328 15.0146
442696 14.8450
443003 14.7034
443065 14.6746
443296 14.5671
443526 14.4601
443778 14.3434
443987 14.2455
444448 14.0309
444541 13.9879
444553 13.9828
444598 13.9637
444642 13.9445
444731 13.9064
444909 13.8304
445328 13.6532
445370 13.6352
445486 13.5852
445601 13.5355
445832 13.4368
446100 13.3236
446104 13.3220
446116 13.3168
446128 13.3117
446151 13.3015
446199 13.2811
446293 13.2403
446509 13.1477
446725 13.0559
446754 13.0449
446817 13.0212
446879 12.9976
447047 12.9322
447214 12.8673
447215 12.8669
447219 12.8655
447222 12.8642
447229 12.8616
447243 12.8563
447270 12.8457
447325 12.8246
447435 12.7826
447654 12.6993
447676 12.6906
447734 12.6680
447791 12.6455
447907 12.6007
448137 12.5118
448429 12.4006
448598 12.3344
448908 12.2142
449059 12.1614
449204 12.1112
449520 11.9981
449979 11.8375
450000 11.8299
450000 11.2571
450001 11.2568
450002 11.2566
450003 11.2561
450006 11.2551
450012 11.2532
450024 11.2493
450047 11.2416
450095 11.2262
450189 11.1956
450378 11.1348
450755 11.0154
451530 10.7672
452305 10.5192
452381 10.4944
452556 10.4450
452731 10.3962
453080 10.3001
453855 10.0843
454630 9.86845
454762 9.83100
455084 9.75252
455406 9.67560
456181 9.48806
456956 9.30053
457143 9.25457
457731 9.13140
458506 8.96812
459281 8.80485
459523 8.75308
460057 8.65533
460832 8.51260
461607 8.36988
461904 8.31453
462382 8.23786
463157 8.11247
464285 7.92795
464708 7.86815
465872 7.69681
466258 7.64835
467808 7.44727
469047 7.28535
469359 7.25175
470134 7.16565
470909 7.07954
471684 6.99341
472459 6.90730
472618 6.88953
472847 6.86782
473235 6.83093
473428 6.81267
473622 6.79422
473816 6.77577
474010 6.75733
474095 6.74930
474181 6.74111
474267 6.73290
474352 6.72489
474438 6.71670
474481 6.71259
474523 6.70868
474566 6.70458
474609 6.70049
474652 6.69640
474695 6.69231
474737 6.68842
474759 6.68626
474780 6.68431
474802 6.68220
474823 6.68025
474844 6.67830
474866 6.67618
474887 6.67423
474908 6.67229
474930 6.67017
474951 6.66823
474973 6.66613
474983 6.66525
474994 6.66420
475005 6.66315
475015 6.66227
475026 6.66123
475037 6.66019
475048 6.65916
475058 6.65828
475069 6.65726
475080 6.65624
475090 6.65536
475101 6.65435
475112 6.65334
475122 6.65248
475133 6.65149
475135 6.65127
475140 6.65123
475144 6.65121
475149 6.65120
475155 6.65116
475160 6.65113
475165 6.65201
475171 6.65313
475176 6.65405
475181 6.65497
475187 6.65612
475192 6.65705
475197 6.65797
475203 6.65915
475208 6.66010
475213 6.66102
475219 6.66226
475224 6.66319
475229 6.66413
475235 6.66546
475240 6.66639
475246 6.66783
475251 6.66879
475256 6.66973
475262 6.67132
475264 6.67146
475267 6.67228
475270 6.67316
475272 6.67332
475272 6.67351
475273 6.67451
475274 6.67539
475275 6.67718
475278 6.68102
475280 6.68296
475283 6.68683
475286 6.69076
475288 6.69261
475291 6.69659
475294 6.70067
475296 6.70237
475299 6.70653
475302 6.71078
475304 6.71232
475307 6.71667
475310 6.72117
475312 6.72238
475312 6.72268
475313 6.72548
475314 6.72799
475315 6.73312
475318 6.74432
475320 6.74946
475323 6.76084
475326 6.77256
475328 6.77717
475330 6.78699
475331 6.78917
475332 6.79122
475334 6.80112
475334 6.80278
475335 6.80555
475335 6.80781
475336 6.81322
475338 6.83173
475339 6.83705
475340 6.84213
475342 6.86167
475343 6.86662
475344 6.87128
475346 6.89108
475346 6.89167
475347 6.89645
475347 6.90037
475348 6.90940
475350 6.94203
475351 6.95082
475352 6.95907
475354 6.99227
475354 6.99558
475355 7.00304
475355 7.00920
475356 7.03475
475357 7.06152
475358 7.07628
475359 7.09012
475361 7.14392
475361 7.14954
475362 7.16107
475362 7.17067
475363 7.19268
475365 7.27641
475366 7.30084
475366 7.30793
475367 7.35386
475367 7.33951
475368 7.36827
475368 7.39198
475369 7.44625
475369 7.43210
475370 7.46419
475370 7.49075
475371 7.56252
475371 7.54131
475372 7.58138
475372 7.61458
475373 7.68560
475373 7.67127
475374 7.72274
475374 7.76538
475375 7.86183
475375 7.83293
475376 7.89843
475376 7.95277
475377 8.07770
475377 8.04179
475378 8.11814
475378 8.18182
475379 8.33183
475379 8.29263
475380 8.45966
475380 8.51342
475381 8.68807
475381 8.60878
475382 8.79916
475382 8.86100
475383 9.10054
475383 9.00882
475384 9.16132
475384 9.29030
475385 9.65737
475385 9.61522
475386 10.0256
475386 9.94230
475387 10.4576
475387 10.3145
475388 10.9408
475388 10.9540
475389 11.6330
475389 11.4541
475390 12.2002
475390 12.2585
475391 13.1406
475391 12.8994
475392 14.0098
475392 13.6314
475393 14.7417
475393 14.8883
475393 15.0008
475394 16.3054
475394 16.2279
475395 17.5634
475395 17.9430
475396 19.4252
475396 18.7983
475397 20.2725
475397 20.5681
475398 21.9032
475398 22.1471
475399 23.0419
475399 22.9153
475400 23.2089
475400 23.2005
475400 23.1984
475401 23.1260
475401 22.9541
475401 23.0764
475402 22.2267
475402 21.9920
475403 20.6930
475403 20.4008
475404 18.9517
475404 19.5682
475405 18.6408
475405 17.9068
475406 16.4483
475406 16.8558
475407 15.4784
475407 15.0546
475407 14.9111
475408 14.4263
475408 13.8231
475408 14.2022
475409 13.1413
475409 13.1240
475410 12.2296
475410 12.4913
475411 11.6209
475411 11.8086
475412 11.0797
475412 11.0572
475413 10.4525
475413 10.5823
475414 10.0732
475414 10.1733
475415 9.74291
475415 9.82027
475416 9.59119
475416 9.41614
475417 9.12472
475417 9.21872
475418 8.97465
475418 8.91797
475419 8.71544
475419 8.77314
475420 8.66990
475420 8.59145
475421 8.40737
475421 8.34938
475422 8.22735
475422 8.28576
475423 8.15741
475423 8.10876
475424 8.01235
475424 8.05758
475425 7.99257
475425 7.94250
475426 7.84411
475426 7.81819
475427 7.73993
475427 7.77221
475428 7.69416
475428 7.66805
475429 7.61007
475429 7.63733
475430 7.59936
475430 7.56999
475431 7.49773
475432 7.43835
475432 7.45782
475433 7.43023
475433 7.40887
475434 7.36137
475434 7.37787
475435 7.35142
475435 7.33083
475436 7.28581
475436 7.27693
475437 7.24702
475437 7.26102
475438 7.24193
475438 7.22343
475439 7.19149
475440 7.17382
475441 7.13355
475442 7.10955
475443 7.09960
475445 7.05185
475446 7.04076
475447 7.02868
475448 7.00284
475449 6.98752
475450 6.98138
475452 6.95116
475453 6.94438
475455 6.91557
475456 6.90830
475457 6.90058
475458 6.88630
475459 6.87751
475460 6.87426
475462 6.85713
475463 6.85359
475465 6.83717
475466 6.83336
475468 6.81755
475469 6.81351
475470 6.80928
475472 6.79397
475473 6.78999
475473 6.78836
475474 6.78614
475474 6.78396
475475 6.78014
475476 6.77874
475478 6.77043
475480 6.76725
475483 6.75750
475486 6.74790
475488 6.74128
475490 6.73475
475492 6.72829
475493 6.72705
475495 6.72059
475497 6.71419
475498 6.71081
475501 6.70662
475504 6.70401
475508 6.69860
475511 6.69585
475515 6.69059
475519 6.68546
475522 6.68261
475526 6.67757
475529 6.67465
475533 6.66971
475537 6.66481
475540 6.66185
475544 6.65701
475547 6.65401
475548 6.65286
475551 6.65167
475555 6.65008
475558 6.64941
475562 6.64785
475565 6.64714
475569 6.64561
475572 6.64488
475576 6.64338
475580 6.64191
475587 6.63970
475594 6.63749
475601 6.63529
475608 6.63310
475616 6.63030
475623 6.62813
475630 6.62597
475637 6.62379
475644 6.62163
475652 6.61893
475659 6.61678
475666 6.61462
475673 6.61247
475680 6.61031
475687 6.60815
475692 6.60657
475695 6.60624
475702 6.60556
475709 6.60487
475716 6.60418
475731 6.60258
475745 6.60123
475759 6.59987
475774 6.59829
475788 6.59694
475802 6.59560
475817 6.59403
475831 6.59268
475846 6.59113
475860 6.58979
475874 6.58845
475889 6.58690
475903 6.58556
475917 6.58424
475946 6.58135
475975 6.57848
476002 6.57580
476032 6.57293
476063 6.56986
476094 6.56681
476124 6.56395
476155 6.56088
476186 6.55783
476247 6.55192
476309 6.54582
476370 6.53990
476432 6.53381
476493 6.52790
476555 6.52180
476616 6.51589
476739 6.50389
476862 6.49189
476985 6.47989
477117 6.46708
477173 6.46159
477250 6.45525
477515 6.43351
477780 6.41176
478046 6.38984
478576 6.34634
479106 6.30284
480167 6.21569
480697 6.17220
481065 6.14189
481228 6.12958
481758 6.08948
482289 6.04921
482819 6.00910
483349 5.96899
483880 5.92872
484410 5.88861
484941 5.84835
485471 5.80824
486001 5.76813
486532 5.72787
487062 5.68775
487592 5.64764
488123 5.60739
488141 5.60604
488205 5.60059
488269 5.59512
488397 5.58414
488653 5.56199
489184 5.51624
489714 5.47067
489979 5.44789
490244 5.42510
490510 5.40212
490775 5.37935
490971 5.36257
491040 5.35511
491305 5.32675
491570 5.29839
491835 5.27003
492101 5.24144
492366 5.21309
492386 5.21100
492447 5.20290
492509 5.19473
492631 5.17809
492896 5.14257
493161 5.10703
493427 5.07121
493448 5.06850
493509 5.05846
493570 5.04826
493692 5.02739
493957 4.98286
494155 4.94999
494222 4.93530
494487 4.87882
494753 4.82188
494863 4.79931
495018 4.75567
495230 4.69720
495336 4.66798
495393 4.65250
495442 4.63506
495548 4.59775
495654 4.56045
495760 4.52315
495836 4.49666
495866 4.48311
495972 4.43618
496078 4.38925
496185 4.34140
496189 4.33972
496202 4.33300
496215 4.32628
496240 4.31263
496291 4.28467
496344 4.25610
496397 4.22754
496450 4.19898
496455 4.19631
496467 4.18856
496479 4.18075
496503 4.16497
496556 4.13043
496609 4.09589
496662 4.06135
496715 4.02681
496764 3.99496
496768 3.99182
496781 3.98157
496795 3.97131
496821 3.95050
496874 3.90919
496927 3.86788
496980 3.82657
497033 3.78526
497086 3.74396
497113 3.72250
497118 3.71870
497129 3.71091
497139 3.70315
497166 3.68234
497192 3.66309
497219 3.64231
497245 3.62304
497272 3.60227
497298 3.58298
497317 3.56823
497325 3.56401
497351 3.55054
497378 3.53595
497404 3.52239
497406 3.52128
497412 3.51955
497419 3.51801
497431 3.51541
497457 3.50941
497472 3.50528
497484 3.50826
497511 3.51384
497537 3.51898
497538 3.51892
497541 3.52105
497545 3.52323
497551 3.52801
497564 3.53903
497583 3.55225
497590 3.56302
497617 3.60144
497627 3.61357
497643 3.64697
497649 3.65790
497670 3.71360
497671 3.71592
497674 3.72483
497677 3.73399
497683 3.75308
497693 3.78324
497696 3.79500
497703 3.81870
497709 3.84384
497715 3.86731
497723 3.90726
497736 3.96689
497737 3.97093
497740 3.98699
497743 4.00345
497749 4.03763
497759 4.09181
497762 4.11225
497769 4.16093
497776 4.21233
497782 4.25138
497789 4.30893
497802 4.41257
497804 4.42808
497810 4.47971
497815 4.53359
497826 4.64510
497829 4.68317
497836 4.75507
497842 4.83074
497848 4.89668
497855 4.98889
497859 5.04235
497869 5.19510
497870 5.20844
497873 5.24988
497876 5.29070
497881 5.37650
497882 5.39377
497885 5.43350
497887 5.47401
497892 5.55740
497895 5.61323
497903 5.75375
497908 5.85377
497914 5.97612
497922 6.16029
497925 6.22075
497935 6.45174
497936 6.47275
497939 6.53973
497942 6.60559
497947 6.74364
497948 6.77068
497951 6.83444
497953 6.89932
497958 7.03250
497961 7.12039
497969 7.36195
497975 7.56237
497981 7.74315
497988 7.97801
497992 8.10648
498001 8.42617
498003 8.49484
498009 8.69813
498014 8.90398
498014 8.91244
498015 8.94130
498016 8.97027
498017 9.02851
498020 9.14202
498025 9.37369
498028 9.51311
498036 9.84539
498041 10.0711
498047 10.3324
498054 10.6664
498066 11.2297
498067 11.2809
498069 11.3968
498072 11.5085
498076 11.7392
498085 12.2096
498094 12.7166
498107 13.4081
498120 14.0993
498134 14.8998
498147 15.5913
498152 15.8606
498160 16.2581
498171 16.8121
498173 16.9020
498180 17.2514
498187 17.5869
498190 17.7299
498200 18.1195
498210 18.5195
498213 18.6074
498220 18.8586
498227 19.0893
498229 19.1566
498235 19.2916
498240 19.4132
498248 19.6141
498253 19.6932
498257 19.7740
498266 19.8725
498277 20.0141
498280 20.0184
498287 20.0513
498293 20.0676
498296 20.0835
498306 20.0467
498315 20.0257
498319 19.9836
498333 19.8490
498334 19.8429
498336 19.8158
498339 19.7873
498344 19.7274
498353 19.5916
498359 19.4731
498374 19.2116
498386 18.9336
498412 18.3778
498417 18.2680
498428 18.0024
498439 17.7333
498452 17.4304
498465 17.1275
498478 16.8245
498492 16.4742
498501 16.2638
498505 16.1777
498518 15.8959
498531 15.6138
498543 15.3335
498545 15.2916
498552 15.1626
498558 15.0358
498571 14.7797
498585 14.4842
498586 14.4645
498589 14.4113
498592 14.3586
498598 14.2545
498611 14.0258
498624 13.7968
498628 13.7207
498638 13.5537
498651 13.3512
498664 13.1485
498670 13.0537
498677 12.9579
498691 12.7504
498704 12.5714
498712 12.4600
498717 12.3994
498730 12.2412
498755 11.9245
498757 11.9031
498764 11.8311
498770 11.7604
498783 11.6231
498797 11.4639
498810 11.3409
498836 11.0995
498860 10.8669
498863 10.8430
498870 10.7908
498876 10.7395
498889 10.6397
498916 10.4204
498924 10.3543
498943 10.2247
498969 10.0521
498987 9.92675
498996 9.87465
499022 9.72690
499049 9.56760
499051 9.55604
499057 9.52606
499063 9.49651
499075 9.43870
499102 9.30102
499114 9.24111
499128 9.18345
499155 9.06607
499181 8.95724
499199 8.87861
499208 8.84637
499234 8.75486
499261 8.65614
499283 8.57823
499287 8.56645
499301 8.52381
499314 8.48226
499367 8.32022
499368 8.31710
499371 8.30834
499375 8.29989
499381 8.28289
499394 8.24950
499420 8.18508
499473 8.05034
499495 7.99325
499526 7.93034
499579 7.82053
499621 7.73278
499632 7.71493
499659 7.66976
499685 7.62638
499738 7.53782
499791 7.44946
499791 7.44924
499792 7.44855
499792 7.44799
499793 7.44689
499795 7.44454
499798 7.43999
499804 7.43097
499818 7.41316
499844 7.37851
499897 7.30764
499950 7.23677
499960 7.22315
500000 7.17960
500003 7.17643
500010 7.16890
500016 7.16154
500030 7.14700
500056 7.11845
500109 7.06047
500129 7.03771
500172 6.99960
500215 6.96333
500322 6.86882
500383 6.81451
500428 6.78459
500534 6.71160
500636 6.64124
500640 6.63911
500653 6.63140
500667 6.62383
500693 6.60891
500746 6.58005
500852 6.52097
500890 6.49932
500958 6.46931
501064 6.42175
501170 6.37419
501228 6.34704
501382 6.29522
501515 6.24934
501647 6.20414
501735 6.17256
501913 6.12878
502178 6.06212
502412 6.00289
502443 5.99743
502509 5.98444
502576 5.97184
502708 5.94769
502973 5.89794
503088 5.87578
503239 5.85389
503504 5.81476
503765 5.77620
503769 5.77578
503777 5.77481
503786 5.77385
503802 5.77193
503835 5.76814
503902 5.76069
504034 5.74624
504299 5.71671
504565 5.68695
504830 5.65741
505095 5.62788
505118 5.62526
505179 5.62015
505239 5.61512
505360 5.60525
505625 5.58327
505890 5.56129
506156 5.53916
506421 5.51718
506471 5.51296
506579 5.50581
506686 5.49879
506951 5.48089
507216 5.46371
507747 5.42849
507824 5.42327
508051 5.41147
508277 5.40005
508808 5.37262
509338 5.34530
509868 5.31798
510399 5.29057
510529 5.28375
510929 5.26870
511459 5.24864
511990 5.22848
512520 5.20840
513051 5.18826
513581 5.16818
514111 5.14811
514588 5.12998
514642 5.12848
514775 5.12469
514907 5.12094
515172 5.11355
515703 5.09857
516233 5.08364
517294 5.05372
518354 5.02385
518647 5.01538
519415 4.99774
520000 4.98416
520000 4.78938
523440 4.79030
525805 4.79094
528170 4.79156
531480 4.89507
534318 4.99846
535736 5.30673
539047 5.30759
541884 5.30832
545668 5.20665
548978 5.20750
555554 5.19135
564337 5.27906
574877 5.19609
587173 4.94242
599469 4.51762
600000 4.49706
608252 4.17774
608720 4.16419
617034 3.92344
624061 3.66866
627574 3.84061
629331 3.58446
632844 3.15769
636357 2.64539
638113 2.30371
641061 2.64656
641331 3.50192
641602 4.87048
641872 5.64033
642007 5.98248
642412 5.46940
642818 4.69972
643088 4.35768
643383 4.44328
643493 4.10119
644034 3.75920
644574 3.58827
645140 3.41733
645926 3.33199
647547 2.73368
648653 2.64842
649574 2.47759
650655 2.39232
652166 2.30716
654708 2.39330
656600 2.73588
658222 3.16392
659192 3.50627
662705 4.79007
664462 5.47474
667975 5.98875
669732 6.07469
675001 5.90487
680271 5.56397
685541 5.30859
692567 4.96806
699594 4.71305
700000 4.69832
706620 4.45823
713646 4.37446
718916 4.63236
722429 4.63322
725942 4.37749
729455 4.29282
729979 4.54953
730385 5.14835
730655 5.14842
731195 4.46430
732547 4.20804
732952 4.37919
734438 4.20849
736735 4.12351
738492 4.03840
741751 3.95365
750534 3.87020
759317 3.70120
768100 3.70321
775126 3.61927
782153 3.62085
785666 3.87823
790935 3.62280
797962 3.70988
800000 3.71032
800150 3.71036
801772 4.30946
802583 3.53988
807447 3.54106
810690 3.54184
812311 3.71330
813933 4.31240
814744 3.71389
815554 3.62855
817176 3.62894
820419 3.62971
822851 3.71582
825283 3.71639
829337 4.05946
832580 4.57340
834201 4.74484
835822 5.34394
837444 6.02856
839065 6.96976
841498 8.42434
843119 9.45107
843930 9.79339
845551 9.62270
847173 8.68224
848794 7.74176
850416 6.63025
852037 5.77530
853658 5.26249
855280 4.92073
856901 4.57897
859334 4.23740
861766 3.98136
863387 3.72513
866630 3.55478
869062 3.38426
873116 3.29962
879602 3.21552
884466 3.13105
886898 3.13157
888520 3.21745
890141 3.13227
892573 3.21832
895006 3.13332
896627 3.04813
899726 2.96326
900000 2.96032
915332 2.79581
929520 2.62797
942288 2.54528
949382 2.37578
950251 2.39227
951061 2.59772
951332 2.98267
951602 3.80382
951872 4.41971
952007 4.59935
952277 4.16320
952548 3.36782
952818 2.98299
953088 2.70080
953629 2.59828
954169 2.59840
955057 2.54808
962151 2.80621
967826 2.80743
976339 2.72371
986270 2.55474
997620 2.38604
1.00000E+06 2.35465
1.01039E+06 2.21790
1.01415E+06 2.17341
1.01748E+06 2.13407
1.01978E+06 2.61325
1.02126E+06 5.38480
1.02163E+06 7.38631
1.02201E+06 8.10486
1.02238E+06 6.87332
1.02312E+06 3.79440
1.02386E+06 2.66558
1.02423E+06 2.25512
1.02458E+06 2.13581
1.02535E+06 1.84484
1.02572E+06 1.74230
1.02609E+06 1.84502
1.02684E+06 2.35840
1.02721E+06 2.92299
1.02758E+06 2.20462
1.02795E+06 1.74284
1.02883E+06 1.53813
1.03025E+06 1.11083
1.03309E+06 0.854928
1.03427E+06 0.837794
1.03650E+06 1.11204
1.03734E+06 1.62572
1.03876E+06 2.39585
1.04018E+06 3.08043
1.04170E+06 3.33704
1.04302E+06 3.42323
1.04728E+06 3.08213
1.05295E+06 2.65582
1.05721E+06 2.22918
1.06146E+06 1.97358
1.06251E+06 2.00774
1.06288E+06 2.57227
1.06325E+06 3.39345
1.06362E+06 4.00936
1.06399E+06 2.67518
1.06436E+06 1.75153
1.06714E+06 1.03407
1.06998E+06 0.863674
1.07281E+06 0.949859
1.07565E+06 1.46369
1.07849E+06 2.31966
1.08275E+06 2.91934
1.08700E+06 3.26243
1.09126E+06 3.34892
1.09410E+06 3.43509
1.09791E+06 3.31591
1.10899E+06 3.24996
1.12284E+06 3.11615
1.13115E+06 3.18638
1.13946E+06 3.18817
1.14777E+06 3.12151
1.15608E+06 2.91800
1.16993E+06 2.78404
1.18655E+06 2.65059
1.19486E+06 2.58386
1.19763E+06 2.72126
1.20317E+06 2.58553
1.20871E+06 2.65505
1.21702E+06 2.65669
1.22533E+06 2.58991
1.24195E+06 2.59313
1.25580E+06 2.59577
1.26688E+06 2.66627
1.27156E+06 2.66714
1.27519E+06 2.66782
1.27764E+06 3.42095
1.27845E+06 4.85800
1.27926E+06 6.70562
1.27967E+06 7.66363
1.28088E+06 5.54270
1.28169E+06 3.83224
1.28251E+06 3.14814
1.28291E+06 2.87453
1.28413E+06 2.73790
1.28627E+06 2.66986
1.28778E+06 3.08069
1.28940E+06 4.38105
1.29021E+06 5.27071
1.29102E+06 6.63935
1.29142E+06 6.98156
1.29264E+06 6.63965
1.29345E+06 6.22925
1.29467E+06 5.95578
1.29588E+06 5.75072
1.29629E+06 5.75079
1.29791E+06 6.29849
1.29913E+06 6.98296
1.29994E+06 7.39365
1.30075E+06 7.66749
1.30156E+06 7.66764
1.30318E+06 6.98369
1.30440E+06 6.29966
1.30561E+06 5.47879
1.30723E+06 4.72642
1.30926E+06 4.24781
1.31088E+06 3.90598
1.31250E+06 3.76942
1.31397E+06 3.70125
1.31534E+06 3.49622
1.31615E+06 3.35952
1.31674E+06 3.42806
1.31858E+06 3.90736
1.31899E+06 4.66009
1.31980E+06 4.31812
1.32020E+06 3.63394
1.32223E+06 3.42903
1.32628E+06 3.42975
1.32791E+06 3.43004
1.33613E+06 3.29463
1.35275E+06 3.09224
1.36937E+06 2.88981
1.37768E+06 2.89122
1.38599E+06 2.75576
1.39430E+06 2.82557
1.39707E+06 2.62076
1.40261E+06 2.48482
1.41923E+06 2.48754
1.42615E+06 2.48865
1.42616E+06 2.48865
1.42616E+06 2.48865
1.42760E+06 2.48889
1.43308E+06 2.48965
1.43862E+06 2.69573
1.44139E+06 3.10670
1.44416E+06 2.49131
1.45524E+06 2.49311
1.46355E+06 2.42615
1.46380E+06 2.42620
1.47186E+06 2.42730
1.47740E+06 2.56496
1.48294E+06 2.29208
1.49402E+06 2.29388
1.49984E+06 2.22645
1.50000E+06 2.22568
1.52740E+06 2.09387
1.53774E+06 1.89026
1.55496E+06 1.61943
1.56186E+06 1.27848
1.56530E+06 0.321137
1.56875E+06 1.62180
1.57219E+06 1.82768
1.58253E+06 1.76109
1.59287E+06 2.17351
1.59976E+06 2.92743
1.60665E+06 3.61295
1.61354E+06 3.81954
1.61699E+06 3.82019
1.62019E+06 3.90558
1.62732E+06 4.09544
1.63421E+06 4.16481
1.64800E+06 3.82461
1.65833E+06 3.41555
1.66522E+06 3.34813
1.67556E+06 3.14439
1.67687E+06 3.15328
1.68590E+06 3.21447
1.69623E+06 3.55824
1.69968E+06 4.03778
1.70313E+06 4.99630
1.70657E+06 6.43378
1.71002E+06 6.84491
1.71346E+06 5.20331
1.71691E+06 4.17753
1.72035E+06 3.28859
1.72724E+06 3.01608
1.73414E+06 3.01729
1.73758E+06 3.08632
1.74447E+06 2.40330
1.74792E+06 2.26706
1.75000E+06 2.59795
1.75481E+06 3.36273
1.76170E+06 2.74763
1.76515E+06 2.54272
1.77893E+06 2.33895
1.79271E+06 2.20367
1.80305E+06 2.34172
1.80649E+06 3.16321
1.80994E+06 4.32685
1.81338E+06 4.87467
1.81683E+06 3.78029
1.82028E+06 3.02805
1.82372E+06 2.68636
1.82717E+06 2.61837
1.83406E+06 2.61924
1.84095E+06 2.55170
1.84784E+06 2.41575
1.85129E+06 3.23730
1.85473E+06 2.82721
1.85818E+06 2.48555
1.86507E+06 2.34963
1.87885E+06 2.69367
1.87892E+06 2.70481
1.88030E+06 2.92427
1.88574E+06 3.78946
1.89263E+06 4.88527
1.89952E+06 3.65465
1.90642E+06 3.03989
1.90986E+06 2.69829
1.91675E+06 2.49406
1.92709E+06 2.35884
1.93743E+06 2.15521
1.94015E+06 2.15565
1.95465E+06 2.15801
1.96155E+06 2.56970
1.96499E+06 2.91240
1.96844E+06 2.29715
1.97533E+06 2.09305
1.98566E+06 1.95797
1.99256E+06 1.95917
1.99767E+06 2.09692
2.00000E+06 2.13364
2.00206E+06 2.16596
2.01084E+06 1.89316
2.02402E+06 1.75768
2.03719E+06 1.96431
2.04401E+06 2.01817
2.04597E+06 2.03365
2.05476E+06 2.10303
2.06793E+06 3.06239
2.07232E+06 3.67866
2.07671E+06 3.88443
2.08550E+06 3.26956
2.09428E+06 2.51786
2.10306E+06 2.10826
2.11184E+06 1.90396
2.12502E+06 2.04226
2.13819E+06 1.77005
2.15137E+06 1.83995
2.16015E+06 1.63567
2.17772E+06 1.63767
2.19528E+06 1.63968
2.19967E+06 1.70862
2.20406E+06 2.32494
2.20846E+06 1.57279
2.21724E+06 2.18963
2.22602E+06 3.28543
2.23041E+06 3.69650
2.23920E+06 4.03966
2.24798E+06 4.31439
2.25000E+06 4.48779
2.25676E+06 5.06810
2.26115E+06 5.34233
2.26994E+06 4.45386
2.27872E+06 3.56538
2.28750E+06 3.22431
2.29189E+06 3.29327
2.30507E+06 2.74746
2.30946E+06 2.33744
2.31824E+06 1.99639
2.32703E+06 1.92903
2.33581E+06 2.20382
2.35777E+06 2.13810
2.37094E+06 2.07131
2.38411E+06 2.00453
2.38851E+06 2.48405
2.39729E+06 2.14303
2.40168E+06 2.07515
2.41046E+06 2.14470
2.41925E+06 2.28266
2.42364E+06 2.07793
2.44559E+06 1.80704
2.45877E+06 1.87716
2.46755E+06 1.60458
2.47194E+06 1.26304
2.47633E+06 1.53729
2.48512E+06 1.81214
2.50000E+06 1.81408
2.50268E+06 1.81430
2.51586E+06 2.02070
2.52464E+06 2.29514
2.53342E+06 2.98013
2.54660E+06 3.25496
2.55099E+06 3.32376
2.56416E+06 3.18806
2.57295E+06 3.12039
2.58612E+06 2.84783
2.59490E+06 3.05387
2.59777E+06 3.19097
2.60520E+06 4.01271
2.60891E+06 4.42359
2.61634E+06 3.87685
2.62006E+06 3.46662
2.63492E+06 4.08375
2.64236E+06 3.87913
2.64979E+06 3.40082
2.65722E+06 3.05936
2.66073E+06 2.96270
2.66465E+06 2.85474
2.66730E+06 2.85498
2.67951E+06 2.85607
2.69066E+06 2.72023
2.70181E+06 2.51595
2.71667E+06 2.10675
2.73154E+06 1.97125
2.74640E+06 1.83575
2.75755E+06 1.97362
2.77241E+06 1.76972
2.79099E+06 2.04512
2.80214E+06 2.59355
2.80957E+06 3.21006
2.81328E+06 3.41567
2.81700E+06 4.03185
2.82071E+06 4.10062
2.82815E+06 3.34863
2.83558E+06 2.66508
2.83929E+06 2.59701
2.84673E+06 1.98187
2.84822E+06 1.95457
2.85416E+06 1.84573
2.87274E+06 1.91591
2.88760E+06 1.84888
2.89875E+06 1.91837
2.90618E+06 1.85064
2.91361E+06 2.33032
2.91418E+06 2.39328
2.91733E+06 2.74122
2.92104E+06 1.98889
2.92847E+06 1.92119
2.93962E+06 1.85382
2.95448E+06 1.78682
2.96935E+06 1.71983
2.97678E+06 1.99424
2.98793E+06 2.26902
2.99164E+06 2.47465
2.99907E+06 2.20168
3.00000E+06 2.21888
3.01394E+06 2.47653
3.02137E+06 2.81923
3.03252E+06 2.88849
3.03995E+06 3.43646
3.04366E+06 3.71042
3.05110E+06 3.09518
3.05247E+06 3.01956
3.05410E+06 2.92956
3.06224E+06 2.48019
3.07711E+06 2.13918
3.09197E+06 2.07187
3.13316E+06 1.64696
3.15289E+06 1.42363
3.16557E+06 1.28010
3.17370E+06 1.18808
3.17628E+06 1.15886
3.18721E+06 1.03508
3.21423E+06 1.29359
3.24126E+06 1.19286
3.27705E+06 1.36527
3.29531E+06 1.45322
3.32233E+06 1.76301
3.33584E+06 2.63636
3.34935E+06 2.02146
3.36287E+06 2.43293
3.38989E+06 1.97291
3.40340E+06 1.71724
3.41692E+06 1.66685
3.45745E+06 2.54200
3.47096E+06 2.59422
3.50000E+06 2.22856
3.51150E+06 2.08367
3.52501E+06 1.98186
3.53852E+06 2.08529
3.54267E+06 2.30607
3.55151E+06 2.77636
3.55204E+06 2.80456
3.56555E+06 2.24084
3.57906E+06 1.98505
3.59257E+06 1.62659
3.60608E+06 1.57607
3.63311E+06 1.88553
3.64662E+06 1.78366
3.67365E+06 2.19575
3.70067E+06 1.68411
3.72729E+06 1.43282
3.72769E+06 1.42905
3.76823E+06 1.53393
3.78174E+06 1.89390
3.80877E+06 1.27958
3.83579E+06 1.07578
3.84845E+06 1.07646
3.85926E+06 1.48760
3.86282E+06 2.41152
3.87007E+06 2.97642
3.87682E+06 2.56623
3.88984E+06 1.07870
3.90335E+06 0.890777
3.91686E+06 0.841212
3.93628E+06 1.13252
3.94389E+06 1.13293
3.94979E+06 1.90301
3.95740E+06 2.00606
3.98442E+06 1.75090
3.99303E+06 1.75136
4.00000E+06 1.70692
4.02496E+06 1.54768
4.05198E+06 1.65162
4.06556E+06 1.78122
4.09347E+06 2.04755
4.10603E+06 2.16739
4.13100E+06 2.45304
4.14657E+06 2.63114
4.16008E+06 2.16990
4.17359E+06 1.75996
4.20062E+06 1.70988
4.21413E+06 2.27499
4.22348E+06 2.59505
4.22764E+06 2.73746
4.24115E+06 1.96829
4.26818E+06 1.86688
4.29330E+06 1.58172
4.29520E+06 1.56016
4.29618E+06 1.56765
4.32223E+06 1.76658
4.33574E+06 2.17771
4.34925E+06 2.89673
4.37628E+06 3.56504
4.40330E+06 2.69380
4.41664E+06 2.49168
4.43032E+06 2.28442
4.44384E+06 1.92576
4.44966E+06 1.85968
4.45735E+06 1.77236
4.48437E+06 2.18402
4.48563E+06 2.13141
4.49788E+06 1.62005
4.50000E+06 1.62013
4.50017E+06 1.62014
4.51887E+06 1.62099
4.53539E+06 1.62171
4.53842E+06 1.62184
4.59247E+06 1.88074
4.61949E+06 2.03582
4.64652E+06 2.44749
4.67354E+06 1.93540
4.68705E+06 1.83331
4.71408E+06 2.03966
4.72759E+06 2.39943
4.75000E+06 1.93211
4.75461E+06 1.83595
4.78164E+06 1.63160
4.80866E+06 2.45358
4.83569E+06 2.14654
4.86271E+06 3.17377
4.88974E+06 2.14825
4.90160E+06 2.01346
4.91262E+06 1.88823
4.91676E+06 1.84118
4.93113E+06 1.80524
4.95730E+06 1.73975
5.00000E+06 1.91405
5.02166E+06 2.00257
5.09022E+06 2.28275
5.09657E+06 2.30870
5.16502E+06 1.81575
5.16751E+06 1.79781
5.19588E+06 2.00400
5.20000E+06 1.92219
5.21454E+06 1.63340
5.22426E+06 1.44034
5.26682E+06 1.18496
5.29520E+06 1.95554
5.32357E+06 1.54580
5.38032E+06 1.90662
5.40870E+06 1.80477
5.42330E+06 2.04287
5.43707E+06 2.26743
5.45126E+06 1.80595
5.45630E+06 1.78786
5.49383E+06 1.65320
5.49640E+06 1.65560
5.50000E+06 1.65896
5.55058E+06 1.70622
5.57895E+06 2.06629
5.60000E+06 1.96032
5.62693E+06 1.82469
5.64989E+06 1.70904
5.68650E+06 1.73648
5.68651E+06 1.73649
5.72083E+06 1.76221
5.77758E+06 2.43078
5.80000E+06 1.86377
5.80596E+06 1.71302
5.83433E+06 1.45707
5.89108E+06 2.02282
5.91089E+06 1.90382
5.93364E+06 1.76715
5.94783E+06 1.56216
5.99040E+06 1.40909
6.00000E+06 1.39539
6.06133E+06 1.30808
6.10000E+06 1.12431
6.10390E+06 1.07463
6.15355E+06 1.12872
6.20321E+06 1.15711
6.26306E+06 1.41810
6.27415E+06 1.46650
6.30000E+06 1.37358
6.35928E+06 1.16029
6.43022E+06 1.46960
6.47278E+06 2.03499
6.50000E+06 1.92069
6.55790E+06 1.67737
6.60047E+06 1.37022
6.62884E+06 1.16544
6.64400E+06 1.14873
6.69978E+06 1.83386
6.70000E+06 1.83280
6.70270E+06 1.81982
6.74235E+06 1.62939
6.75600E+06 1.59513
6.78491E+06 2.04071
6.79910E+06 2.34888
6.80800E+06 2.39998
6.84500E+06 2.26392
6.85585E+06 2.04198
6.90000E+06 1.93469
6.91200E+06 1.90552
6.94097E+06 1.68413
7.00000E+06 1.57043
7.03800E+06 1.49732
7.09953E+06 1.53250
7.10000E+06 1.53381
7.18601E+06 1.77334
7.21600E+06 1.82557
7.27249E+06 1.63778
7.31000E+06 1.87573
7.31573E+06 1.91206
7.35000E+06 1.86155
7.37300E+06 1.63900
7.41800E+06 1.45091
7.44800E+06 1.29811
7.50000E+06 1.66978
7.51000E+06 1.74125
7.51030E+06 1.74339
7.55354E+06 1.88076
7.57516E+06 1.70996
7.61840E+06 1.98418
7.62787E+06 1.93434
7.65691E+06 1.78153
7.68326E+06 1.64288
7.70000E+06 1.45767
7.70488E+06 1.40367
7.77500E+06 1.48950
7.87063E+06 1.59275
7.87100E+06 1.59315
7.90000E+06 1.58681
7.93649E+06 1.57883
7.94269E+06 1.57747
8.00000E+06 1.62711
8.04200E+06 1.66343
8.07300E+06 1.65394
8.09403E+06 1.64752
8.11000E+06 1.63925
8.14053E+06 1.62344
8.15888E+06 1.61401
8.22374E+06 1.82015
8.22843E+06 1.85361
8.26698E+06 2.12861
8.31022E+06 2.02650
8.31057E+06 2.02466
8.32296E+06 1.95945
8.37508E+06 1.68507
8.41832E+06 1.78813
8.50000E+06 1.59500
8.50479E+06 1.58366
8.63451E+06 1.75572
8.72099E+06 1.68787
8.82909E+06 1.44905
8.93718E+06 1.65489
9.00000E+06 1.55577
9.04528E+06 1.48446
9.17500E+06 1.69066
9.28309E+06 1.45190
9.39119E+06 1.55521
9.47767E+06 1.72677
9.50000E+06 1.54934
9.51000E+06 1.46987
9.54253E+06 1.72709
9.57300E+06 1.76134
9.65062E+06 1.48812
9.70625E+06 1.54416
9.75300E+06 1.59122
1.00000E+07 1.60491
1.02400E+07 1.61835
1.02843E+07 1.58742
1.03500E+07 1.54149
1.04205E+07 1.55109
1.04206E+07 1.55109
1.05000E+07 1.56205
1.05400E+07 1.56751
1.06700E+07 1.55524
1.07500E+07 1.62002
1.08900E+07 1.59501
1.10000E+07 1.60846
1.10252E+07 1.61163
1.11000E+07 1.62099
1.12700E+07 1.73686
1.14088E+07 1.66949
1.14800E+07 1.63487
1.15000E+07 1.62540
1.15243E+07 1.61392
1.15600E+07 1.59703
1.17000E+07 1.78963
1.18100E+07 1.62255
1.19400E+07 1.64779
1.20000E+07 1.65462
1.20500E+07 1.66043
1.21000E+07 1.69973
1.21832E+07 1.64638
1.22000E+07 1.63562
1.22400E+07 1.60998
1.23700E+07 1.64813
1.24000E+07 1.65239
1.24600E+07 1.66095
1.25510E+07 1.63449
1.25900E+07 1.62313
1.26000E+07 1.62155
1.26415E+07 1.61504
1.26700E+07 1.61057
1.28000E+07 1.69418
1.28100E+07 1.70062
1.29400E+07 1.62359
1.30000E+07 1.60467
1.30600E+07 1.58549
1.32000E+07 1.59359
1.32700E+07 1.59780
1.34000E+07 1.65700
1.35500E+07 1.72575
1.36000E+07 1.71108
1.37700E+07 1.66167
1.38000E+07 1.67391
1.39600E+07 1.73961
1.40000E+07 1.74739
1.41600E+07 1.77722
1.42000E+07 1.78002
1.44000E+07 1.79462
1.45000E+07 1.80228
1.46000E+07 1.80221
1.46958E+07 1.80239
1.48000E+07 1.80264
1.49900E+07 1.80376
1.50000E+07 1.80381
1.55000E+07 1.80293
1.60000E+07 1.80430
1.70000E+07 1.80453
1.72258E+07 1.80406
1.75000E+07 1.80388
1.76954E+07 1.80401
1.80000E+07 1.80456
1.85000E+07 1.80421
1.90000E+07 1.80442
1.95000E+07 1.80413
2.00000E+07 1.80417