Si-30(n,g) ENDF/B-VII.1
Energy(eV) XS(b)
1.00000E-05 5.38599
1.25000E-05 4.81738
1.50000E-05 4.39764
2.00000E-05 3.80847
2.75000E-05 3.24787
3.50000E-05 2.87893
4.25000E-05 2.61259
5.00000E-05 2.40869
6.25000E-05 2.15440
7.50000E-05 1.96669
0.000100000 1.70320
0.000125000 1.52339
0.000150000 1.39066
0.000200000 1.20434
0.000275000 1.02707
0.000350000 0.910398
0.000425000 0.826173
0.000500000 0.761694
0.000625000 0.681280
0.000750000 0.621921
0.00100000 0.538599
0.00125000 0.481738
0.00150000 0.439764
0.00200000 0.380847
0.00275000 0.324787
0.00350000 0.287893
0.00425000 0.261259
0.00500000 0.240869
0.00625000 0.215440
0.00750000 0.196669
0.0100000 0.170320
0.0125000 0.152339
0.0150000 0.139066
0.0200000 0.120435
0.0253000 0.107079
0.0314750 0.0960027
0.0376500 0.0877777
0.0500000 0.0761696
0.0625000 0.0681283
0.0750000 0.0621924
0.100000 0.0538603
0.125000 0.0481741
0.150000 0.0439768
0.200000 0.0380851
0.275000 0.0324793
0.350000 0.0287899
0.500000 0.0240876
0.750000 0.0196677
1.00000 0.0170330
1.50000 0.0139078
2.00000 0.0120448
2.75000 0.0102723
3.50000 0.00910581
5.00000 0.00761912
7.50000 0.00622188
10.0000 0.00538909
15.0000 0.00440146
20.0000 0.00381289
27.5000 0.00325309
35.0000 0.00288486
50.0000 0.00241587
75.0000 0.00197568
100.000 0.00171382
150.000 0.00140427
200.000 0.00122081
275.000 0.00104783
350.000 0.000935656
500.000 0.000797140
750.000 0.000680655
1000.00 0.000635789
1250.00 0.000651084
1500.00 0.000770231
1625.00 0.000920024
1750.00 0.00122110
1812.50 0.00148995
1875.00 0.00191803
1937.50 0.00265361
2000.00 0.00406762
2029.29 0.00522262
2058.59 0.00700712
2087.88 0.00997261
2117.18 0.0154367
2131.82 0.0200818
2146.47 0.0272313
2161.12 0.0390634
2175.76 0.0607585
2183.09 0.0791269
2190.41 0.107290
2197.73 0.153684
2205.06 0.238195
2208.72 0.309298
2212.38 0.417676
2216.04 0.594746
2219.70 0.913470
2221.53 1.17853
2223.37 1.57793
2225.20 2.22030
2227.03 3.35003
2227.94 4.26898
2228.86 5.62131
2229.77 7.73290
2230.69 11.2843
2231.60 17.9514
2232.06 23.7045
2232.52 32.6305
2232.98 47.5391
2233.43 74.6553
2233.66 97.1012
2233.89 130.023
2234.12 179.469
2234.35 253.310
2234.68 405.425
2235.00 506.280
2235.33 404.786
2235.65 253.227
2235.99 153.797
2236.32 99.0150
2236.66 67.8382
2236.99 49.0010
2237.33 36.8548
2237.66 28.6714
2238.33 18.6888
2239.00 13.1068
2239.67 9.68618
2241.00 5.89669
2242.34 3.95884
2243.68 2.83981
2245.02 2.13568
2246.36 1.66424
2249.03 1.09190
2251.71 0.771238
2254.39 0.573672
2257.06 0.443406
2262.42 0.287711
2267.77 0.201781
2273.12 0.149376
2278.47 0.115086
2289.18 0.0744072
2299.88 0.0521119
2310.59 0.0385810
2321.29 0.0297544
2342.70 0.0193160
2364.11 0.0136096
2385.52 0.0101511
2406.93 0.00789632
2449.75 0.00522970
2492.57 0.00377046
2535.39 0.00288443
2578.21 0.00230541
2663.85 0.00161779
2749.49 0.00123893
2920.77 0.000854447
3092.05 0.000671325
3263.33 0.000569803
3605.90 0.000471764
3948.46 0.000447940
4291.02 0.000516571
4462.30 0.000652988
4633.58 0.00107432
4719.22 0.00167786
4762.04 0.00228822
4804.86 0.00341369
4847.68 0.00584362
4869.09 0.00828144
4890.50 0.0127523
4901.20 0.0165379
4911.91 0.0223446
4922.61 0.0319133
4933.32 0.0493596
4938.67 0.0640508
4944.02 0.0864592
4949.38 0.123124
4954.73 0.189260
4957.41 0.244383
4960.08 0.327583
4962.76 0.461769
4965.43 0.698894
4966.77 0.892554
4968.11 1.17886
4969.45 1.62793
4970.79 2.39017
4972.13 3.83749
4972.79 5.10263
4973.46 7.09768
4974.13 10.4902
4974.80 16.8677
4975.14 22.3145
4975.47 30.5229
4975.81 43.3691
4976.14 63.4585
4976.57 101.582
4977.00 126.907
4977.43 101.470
4977.86 63.4488
4978.21 42.7975
4978.55 29.8374
4978.90 21.6413
4979.25 16.2750
4979.94 10.0457
4980.63 6.76515
4981.32 4.84840
4982.01 3.63829
4983.40 2.26041
4984.78 1.53690
4986.16 1.11173
4987.55 0.841120
4988.93 0.658528
4991.70 0.434849
4994.47 0.308459
4997.23 0.230138
5000.00 0.178281
5004.88 0.121510
5009.77 0.0881355
5014.65 0.0668678
5019.53 0.0524874
5029.30 0.0348482
5039.06 0.0248517
5048.83 0.0186427
5058.59 0.0145244
5078.13 0.00957083
5097.66 0.00681782
5117.19 0.00513102
5156.25 0.00325572
5195.31 0.00229057
5234.38 0.00172866
5312.50 0.00113246
5468.75 0.000670653
5625.00 0.000495379
5937.50 0.000358472
6250.00 0.000303342
7500.00 0.000229713
10000.0 0.000184083
15000.0 0.000145508
20000.0 0.000125203
27500.0 0.000107068
35000.0 9.58564E-05
50000.0 8.31243E-05
75000.0 7.60668E-05
100000 8.22784E-05
119623 0.000102723
129434 0.000124398
139245 0.000163061
149056 0.000239552
153962 0.000308609
158868 0.000420936
163773 0.000620654
168679 0.00102355
169905 0.00118751
170518 0.00128456
171132 0.00139377
171745 0.00151713
172051 0.00158482
172358 0.00165696
172665 0.00173391
172971 0.00181606
173278 0.00190384
173584 0.00199773
174198 0.00220587
174811 0.00244509
175424 0.00272073
176037 0.00303883
176650 0.00340608
177264 0.00382936
178490 0.00486722
179740 0.00618951
180990 0.00763985
183490 0.00908889
184740 0.00832218
185990 0.00693555
188490 0.00426914
191408 0.00243590
194325 0.00150765
197243 0.00100857
200161 0.000717683
203078 0.000535815
205996 0.000415462
211831 0.000272192
217666 0.000194329
223502 0.000148992
229337 0.000129699
230796 0.000135562
232254 0.000163602
232984 0.000207180
233348 0.000251594
233713 0.000332832
234078 0.000504258
234260 0.000671369
234443 0.000967229
234625 0.00156740
234716 0.00213002
234807 0.00308496
234898 0.00490286
234944 0.00649463
234990 0.00900894
235035 0.0132944
235081 0.0213784
235104 0.0282942
235126 0.0387826
235149 0.0552151
235172 0.0809696
235201 0.129588
235230 0.161811
235259 0.129356
235288 0.0809490
235321 0.0468629
235354 0.0292203
235387 0.0196094
235420 0.0139626
235453 0.0104028
235486 0.00804396
235552 0.00521674
235617 0.00365804
235683 0.00271419
235815 0.00167796
235947 0.00115232
236078 0.000850037
236342 0.000533772
236605 0.000380051
236868 0.000293817
237395 0.000205125
237922 0.000162360
238448 0.000138183
239502 0.000112573
241608 9.10753E-05
243715 8.08501E-05
252142 6.16446E-05
268996 4.42566E-05
285849 3.61245E-05
294276 3.76491E-05
296383 4.17594E-05
298490 5.44983E-05
299543 7.23503E-05
300070 8.99472E-05
300596 0.000121406
301123 0.000186020
301386 0.000247399
301650 0.000353173
301913 0.000558929
302045 0.000743386
302176 0.00104183
302308 0.00156977
302440 0.00262375
302506 0.00358366
302571 0.00513080
302637 0.00776408
302703 0.0123545
302772 0.0197365
302840 0.0247340
302909 0.0198960
302977 0.0124807
303031 0.00852433
303084 0.00600706
303137 0.00439452
303191 0.00332846
303298 0.00207911
303404 0.00141522
303511 0.00102509
303618 0.000777812
303832 0.000495055
304045 0.000346131
304259 0.000258444
304686 0.000164707
305113 0.000118311
305541 9.20139E-05
306395 6.47961E-05
307250 5.16641E-05
308104 4.42898E-05
309813 3.66255E-05
313231 3.05591E-05
316649 2.79551E-05
330320 2.36819E-05
357664 1.99382E-05
385007 1.88916E-05
391843 1.98714E-05
398678 2.34726E-05
402096 2.86378E-05
403805 3.36775E-05
405514 4.25109E-05
407223 5.99953E-05
408078 7.59111E-05
408932 0.000102067
409787 0.000149301
410214 0.000188458
410641 0.000246911
411068 0.000338963
411496 0.000493372
411923 0.000770907
412350 0.00128996
412745 0.00205564
413140 0.00257016
413535 0.00206339
413930 0.00129642
414381 0.000753901
414833 0.000473453
415284 0.000321367
415736 0.000232297
416187 0.000176408
416638 0.000139298
417541 9.48908E-05
418444 7.04593E-05
419347 5.56384E-05
421152 3.93480E-05
422958 3.10545E-05
424763 2.62503E-05
428374 2.11437E-05
435597 1.70731E-05
442819 1.53811E-05
471707 1.28680E-05
529485 1.08264E-05
587262 9.79007E-06
616150 1.00608E-05
623373 1.06363E-05
630595 1.23691E-05
634206 1.47976E-05
637817 2.16170E-05
639622 3.09202E-05
641428 5.64086E-05
642331 9.01934E-05
642782 0.000122531
643233 0.000178788
643685 0.000289850
643911 0.000391036
644136 0.000557792
644362 0.000860426
644475 0.00111285
644588 0.00149166
644701 0.00209359
644813 0.00311465
644926 0.00498140
645039 0.00855305
645140 0.0136880
645240 0.0171264
645341 0.0137190
645441 0.00858414
645557 0.00493345
645673 0.00305736
645788 0.00204265
645904 0.00145035
646020 0.00107904
646136 0.000833042
646367 0.000539065
646599 0.000377590
646830 0.000279838
647293 0.000172772
647756 0.000118600
648219 8.74981E-05
649145 5.50094E-05
650071 3.92812E-05
650997 3.04972E-05
652848 2.15547E-05
656552 1.50329E-05
660255 1.27698E-05
667663 1.13576E-05
675070 1.12688E-05
682477 1.19474E-05
689884 1.40086E-05
693587 1.66048E-05
697291 2.33371E-05
699143 3.21502E-05
700995 5.58037E-05
701920 8.68554E-05
702383 0.000116467
702846 0.000167849
703309 0.000268997
703541 0.000360913
703772 0.000511921
704004 0.000785036
704119 0.00101172
704235 0.00135083
704351 0.00188672
704467 0.00278861
704582 0.00441812
704698 0.00748316
704804 0.0119546
704910 0.0148790
705016 0.0118574
705122 0.00740941
705186 0.00549396
705251 0.00414371
705380 0.00252327
705508 0.00166810
705637 0.00117692
705766 0.000872431
705895 0.000672293
706152 0.000434941
706410 0.000305640
706667 0.000227774
707182 0.000142936
707697 0.000100271
708212 7.59096E-05
709242 5.07118E-05
710272 3.87573E-05
711302 3.23011E-05
713362 2.62857E-05
717481 2.38278E-05
721601 2.60729E-05
725721 3.17329E-05
729841 4.23566E-05
733960 6.23546E-05
738080 0.000100924
741765 0.000156787
745450 0.000194847
749135 0.000158188
752820 0.000101891
755564 7.30023E-05
758307 5.42101E-05
763794 3.37815E-05
769281 2.41250E-05
774768 1.90961E-05
780254 1.64800E-05
785741 1.58070E-05
788485 1.67479E-05
791228 2.04942E-05
793972 4.03417E-05
794658 5.89174E-05
795343 0.000105207
795686 0.000159710
796029 0.000280068
796201 0.000402657
796372 0.000627311
796458 0.000814452
796544 0.00109077
796629 0.00151067
796715 0.00215277
796950 0.00446262
797068 0.00368821
797185 0.00232857
797264 0.00167567
797342 0.00123066
797421 0.000929398
797499 0.000721786
797657 0.000467388
797814 0.000326591
797971 0.000241577
798128 0.000186758
798442 0.000123023
798757 8.90146E-05
799071 6.88677E-05
799699 4.74048E-05
800328 3.70799E-05
800957 3.16530E-05
802214 2.76911E-05
804728 4.03864E-05
805985 9.42455E-05
806300 0.000141955
806614 0.000255427
806771 0.000382494
806928 0.000645775
807007 0.000895946
807085 0.00131942
807164 0.00209573
807243 0.00359511
807380 0.00751405
807449 0.00627232
807518 0.00397869
807566 0.00282445
807614 0.00205232
807710 0.00118828
807806 0.000767072
807902 0.000538004
808094 0.000315469
808286 0.000218037
808670 0.000144908
809054 0.000133305
809438 0.000160751
809822 0.000255506
810014 0.000365985
810206 0.000589266
810302 0.000791969
810398 0.00111672
810494 0.00166138
810590 0.00258538
810695 0.00407849
810800 0.00490626
810905 0.00379593
811010 0.00236224
811135 0.00134785
811260 0.000837225
811385 0.000563618
811510 0.000404293
811760 0.000238417
812010 0.000159187
812260 0.000115463
812510 8.88385E-05
813010 5.93689E-05
813510 4.42141E-05
814010 3.53651E-05
815010 2.59119E-05
817010 1.85481E-05
819011 1.58835E-05
823011 1.45420E-05
827011 1.55957E-05
831011 1.92999E-05
835012 2.95650E-05
837012 4.17679E-05
838012 5.22089E-05
839012 6.82397E-05
840012 9.44070E-05
841012 0.000140483
842012 0.000228909
843012 0.000406685
843841 0.000635763
844256 0.000726117
844670 0.000741436
845499 0.000557645
846328 0.000345630
846835 0.000258009
847342 0.000196803
848355 0.000123306
849369 8.42941E-05
850383 6.16976E-05
851396 4.76018E-05
852410 3.82754E-05
854437 2.71452E-05
856464 2.10408E-05
858492 1.73568E-05
862546 1.34013E-05
866601 1.16675E-05
870655 1.15616E-05
872683 1.27233E-05
874710 1.69128E-05
876737 4.05418E-05
877751 0.000130279
878004 0.000217525
878258 0.000446582
878384 0.000734126
878511 0.00142944
878574 0.00221793
878638 0.00386639
878669 0.00544666
878701 0.00814365
878733 0.0131115
878764 0.0226603
878792 0.0362465
878820 0.0451378
878848 0.0359854
878876 0.0224981
878900 0.0146250
878925 0.00990904
878974 0.00522022
879023 0.00315862
879072 0.00210398
879171 0.00111894
879269 0.000692506
879466 0.000341840
879662 0.000204829
880448 6.07951E-05
882021 2.14933E-05
885166 1.10125E-05
888312 8.86444E-06
891457 8.00226E-06
904038 6.84354E-06
929200 6.20333E-06
954362 6.19228E-06
966943 7.23085E-06
970088 8.35022E-06
973233 1.14644E-05
974806 1.56346E-05
976379 2.67080E-05
977951 7.55895E-05
978344 0.000116016
978738 0.000203631
978934 0.000290905
979131 0.000446750
979327 0.000754550
979426 0.00102143
979524 0.00141296
979820 0.00287839
979968 0.00234204
980116 0.00147190
980272 0.000886158
980427 0.000567261
980582 0.000387695
980738 0.000279974
981048 0.000164982
981359 0.000109028
981670 7.79224E-05
981980 5.89372E-05
982602 3.79877E-05
983223 2.73172E-05
983845 2.11643E-05
985087 1.47146E-05
987573 9.82573E-06
990058 8.03221E-06
995029 6.70984E-06
1.00000E+06 6.23635E-06
1.01120E+06 5.88480E-06
1.02241E+06 5.80645E-06
1.04481E+06 5.90923E-06
1.08962E+06 7.09010E-06
1.11203E+06 8.90525E-06
1.12323E+06 1.07063E-05
1.13443E+06 1.39194E-05
1.14563E+06 2.04846E-05
1.15123E+06 2.66925E-05
1.15684E+06 3.73626E-05
1.16244E+06 5.80633E-05
1.16524E+06 7.65983E-05
1.16804E+06 0.000106590
1.17084E+06 0.000159634
1.17364E+06 0.000265654
1.17504E+06 0.000362177
1.17644E+06 0.000517828
1.17784E+06 0.000782181
1.17924E+06 0.00123913
1.17998E+06 0.00158204
1.18035E+06 0.00177289
1.18072E+06 0.00196464
1.18109E+06 0.00214147
1.18146E+06 0.00228317
1.18220E+06 0.00238533
1.18368E+06 0.00185635
1.18516E+06 0.00115365
1.18615E+06 0.000831878
1.18714E+06 0.000613958
1.18912E+06 0.000363803
1.19110E+06 0.000237646
1.19309E+06 0.000167301
1.19507E+06 0.000124767
1.19705E+06 9.74980E-05
1.20101E+06 6.69062E-05
1.20497E+06 5.36368E-05
1.20894E+06 5.43967E-05
1.21092E+06 6.46936E-05
1.21191E+06 7.57995E-05
1.21290E+06 9.51252E-05
1.21389E+06 0.000131166
1.21488E+06 0.000206514
1.21538E+06 0.000277715
1.21587E+06 0.000396315
1.21637E+06 0.000607123
1.21686E+06 0.000994444
1.21733E+06 0.00157292
1.21780E+06 0.00195411
1.21827E+06 0.00156837
1.21874E+06 0.000990487
1.21917E+06 0.000641786
1.21960E+06 0.000436546
1.22003E+06 0.000313156
1.22046E+06 0.000235351
1.22132E+06 0.000148203
1.22218E+06 0.000103699
1.22304E+06 7.80662E-05
1.22390E+06 6.19959E-05
1.22562E+06 4.36213E-05
1.22734E+06 3.37909E-05
1.22906E+06 2.78370E-05
1.23250E+06 2.11255E-05
1.23938E+06 1.52914E-05
1.24627E+06 1.28685E-05
1.25315E+06 1.19839E-05
1.26003E+06 1.27595E-05
1.26347E+06 1.46057E-05
1.26691E+06 1.97280E-05
1.26863E+06 2.59369E-05
1.27035E+06 3.97816E-05
1.27121E+06 5.39647E-05
1.27207E+06 8.01658E-05
1.27250E+06 0.000102171
1.27293E+06 0.000135080
1.27336E+06 0.000186081
1.27379E+06 0.000266759
1.27490E+06 0.000595916
1.27518E+06 0.000598142
1.27546E+06 0.000533803
1.27601E+06 0.000346060
1.27641E+06 0.000242630
1.27682E+06 0.000174301
1.27722E+06 0.000129849
1.27763E+06 0.000100336
1.27843E+06 6.55834E-05
1.27924E+06 4.71759E-05
1.28005E+06 3.63929E-05
1.28086E+06 2.96075E-05
1.28247E+06 2.19349E-05
1.28570E+06 1.58258E-05
1.28893E+06 1.39581E-05
1.29216E+06 1.40913E-05
1.29539E+06 1.69983E-05
1.29862E+06 3.39023E-05
1.30023E+06 9.43442E-05
1.30064E+06 0.000150256
1.30104E+06 0.000288097
1.30124E+06 0.000449015
1.30144E+06 0.000799331
1.30155E+06 0.00114966
1.30165E+06 0.00177760
1.30175E+06 0.00302228
1.30180E+06 0.00408908
1.30185E+06 0.00564397
1.30192E+06 0.00903467
1.30200E+06 0.0111702
1.30208E+06 0.00883378
1.30215E+06 0.00552434
1.30222E+06 0.00360695
1.30229E+06 0.00246810
1.30242E+06 0.00131871
1.30255E+06 0.000804998
1.30268E+06 0.000542048
1.30295E+06 0.000294334
1.30321E+06 0.000186711
1.30374E+06 9.81743E-05
1.30427E+06 6.38242E-05
1.30533E+06 3.84577E-05
1.30639E+06 3.10123E-05
1.30851E+06 4.19330E-05
1.30957E+06 9.93534E-05
1.30984E+06 0.000148859
1.31010E+06 0.000259420
1.31023E+06 0.000373811
1.31037E+06 0.000584841
1.31050E+06 0.00102965
1.31056E+06 0.00144421
1.31063E+06 0.00209949
1.31080E+06 0.00462590
1.31084E+06 0.00456603
1.31089E+06 0.00402227
1.31097E+06 0.00256844
1.31107E+06 0.00146958
1.31116E+06 0.000903114
1.31126E+06 0.000600718
1.31136E+06 0.000427618
1.31155E+06 0.000248131
1.31174E+06 0.000163622
1.31213E+06 8.98677E-05
1.31252E+06 5.96517E-05
1.31329E+06 3.57148E-05
1.31406E+06 2.66848E-05
1.31561E+06 2.00595E-05
1.31715E+06 1.79575E-05
1.32024E+06 1.74959E-05
1.32333E+06 1.92341E-05
1.32642E+06 2.31188E-05
1.32951E+06 3.11637E-05
1.33106E+06 3.86496E-05
1.33260E+06 5.13031E-05
1.33415E+06 7.50855E-05
1.33492E+06 9.53227E-05
1.33569E+06 0.000125397
1.33800E+06 0.000288554
1.33858E+06 0.000305710
1.33916E+06 0.000286893
1.34031E+06 0.000199128
1.34151E+06 0.000130208
1.34271E+06 9.45910E-05
1.34391E+06 7.74583E-05
1.34511E+06 7.01246E-05
1.34750E+06 7.12669E-05
1.34990E+06 8.66773E-05
1.35295E+06 0.000121524
1.35600E+06 0.000142700
1.35905E+06 0.000116406
1.36210E+06 8.18739E-05
1.36430E+06 6.60391E-05
1.36650E+06 5.68958E-05
1.37090E+06 5.12210E-05
1.38360E+06 6.34958E-05
1.38995E+06 5.75535E-05
1.39313E+06 6.14636E-05
1.39471E+06 7.14413E-05
1.39630E+06 9.69231E-05
1.39724E+06 0.000130247
1.39818E+06 0.000199249
1.39864E+06 0.000263442
1.39911E+06 0.000368762
1.39958E+06 0.000551376
1.40005E+06 0.000874800
1.40053E+06 0.00138041
1.40100E+06 0.00169790
1.40148E+06 0.00134573
1.40195E+06 0.000847187
1.40226E+06 0.000622766
1.40256E+06 0.000468329
1.40318E+06 0.000288172
1.40379E+06 0.000195629
1.40440E+06 0.000143554
1.40502E+06 0.000111822
1.40563E+06 9.14779E-05
1.40686E+06 6.90992E-05
1.40809E+06 6.12722E-05
1.40931E+06 6.88604E-05
1.40993E+06 8.59274E-05
1.41054E+06 0.000131307
1.41115E+06 0.000290144
1.41131E+06 0.000389237
1.41146E+06 0.000549658
1.41161E+06 0.000823028
1.41177E+06 0.00128860
1.41193E+06 0.00199012
1.41202E+06 0.00222431
1.41210E+06 0.00220329
1.41227E+06 0.00158137
1.41243E+06 0.000969004
1.41261E+06 0.000602060
1.41278E+06 0.000402400
1.41295E+06 0.000287072
1.41312E+06 0.000215985
1.41346E+06 0.000137700
1.41380E+06 9.81788E-05
1.41415E+06 7.55258E-05
1.41449E+06 6.13070E-05
1.41517E+06 4.49940E-05
1.41654E+06 3.07805E-05
1.41791E+06 2.45321E-05
1.42064E+06 1.87154E-05
1.42338E+06 1.58427E-05
1.42885E+06 1.28519E-05
1.43433E+06 1.12848E-05
1.44527E+06 9.77443E-06
1.45622E+06 9.25991E-06
1.47811E+06 9.78042E-06
1.50000E+06 1.22461E-05
1.50000E+06 0.00120000
1.60000E+06 0.00120000
1.70000E+06 0.00120000
1.75000E+06 0.00120000
1.75075E+06 0.00120000
1.75234E+06 0.00120000
1.75393E+06 0.00120000
1.75553E+06 0.00120000
1.75713E+06 0.00120000
1.75873E+06 0.00120000
1.76034E+06 0.00120000
1.76194E+06 0.00120000
1.76355E+06 0.00120000
1.76516E+06 0.00120000
1.76677E+06 0.00120000
1.76839E+06 0.00120000
1.77001E+06 0.00120000
1.77162E+06 0.00120000
1.77325E+06 0.00120000
1.77487E+06 0.00120000
1.77650E+06 0.00120000
1.77812E+06 0.00120000
1.77975E+06 0.00120000
1.78139E+06 0.00120000
1.78237E+06 0.00120000
1.78269E+06 0.00120000
1.78302E+06 0.00120000
1.78335E+06 0.00120000
1.78368E+06 0.00120000
1.78400E+06 0.00120000
1.78433E+06 0.00120000
1.78466E+06 0.00120000
1.78499E+06 0.00120000
1.78531E+06 0.00120000
1.78564E+06 0.00120000
1.78597E+06 0.00120000
1.78630E+06 0.00120000
1.78663E+06 0.00120000
1.78695E+06 0.00120000
1.78728E+06 0.00120000
1.78761E+06 0.00120000
1.78794E+06 0.00120000
1.78860E+06 0.00120000
1.78958E+06 0.00120000
1.79057E+06 0.00120000
1.79156E+06 0.00120000
1.79255E+06 0.00120000
1.79354E+06 0.00120000
1.79453E+06 0.00120000
1.79552E+06 0.00120000
1.79651E+06 0.00120000
1.79751E+06 0.00120000
1.79850E+06 0.00120000
1.79950E+06 0.00120000
1.80049E+06 0.00120000
1.80149E+06 0.00120000
1.80215E+06 0.00120000
1.80249E+06 0.00120000
1.80282E+06 0.00120000
1.80315E+06 0.00120000
1.80348E+06 0.00120000
1.80382E+06 0.00120000
1.80415E+06 0.00120000
1.80448E+06 0.00120000
1.80482E+06 0.00120000
1.80515E+06 0.00120000
1.80548E+06 0.00120000
1.80582E+06 0.00120000
1.80615E+06 0.00120000
1.80648E+06 0.00120000
1.80682E+06 0.00120000
1.80715E+06 0.00120000
1.80748E+06 0.00120000
1.80782E+06 0.00120000
1.80815E+06 0.00120000
1.80849E+06 0.00120000
1.80932E+06 0.00120000
1.81066E+06 0.00120000
1.81200E+06 0.00120000
1.81334E+06 0.00120000
1.81469E+06 0.00120000
1.81603E+06 0.00120000
1.81738E+06 0.00120000
1.81872E+06 0.00120000
1.82007E+06 0.00120000
1.82142E+06 0.00120000
1.82278E+06 0.00120000
1.82413E+06 0.00120000
1.82548E+06 0.00120000
1.82701E+06 0.00120000
1.82871E+06 0.00120000
1.83041E+06 0.00120000
1.83211E+06 0.00120000
1.83382E+06 0.00120000
1.83518E+06 0.00120000
1.83621E+06 0.00120000
1.83724E+06 0.00120000
1.83826E+06 0.00120000
1.83929E+06 0.00120000
1.84032E+06 0.00120000
1.84135E+06 0.00120000
1.84238E+06 0.00120000
1.84341E+06 0.00120000
1.84444E+06 0.00120000
1.84548E+06 0.00120000
1.84651E+06 0.00120000
1.84755E+06 0.00120000
1.84858E+06 0.00120000
1.84962E+06 0.00120000
1.85066E+06 0.00120000
1.85170E+06 0.00120000
1.85274E+06 0.00120000
1.85378E+06 0.00120000
1.85482E+06 0.00120000
1.85586E+06 0.00120000
1.85690E+06 0.00120000
1.85795E+06 0.00120000
1.85899E+06 0.00120000
1.86004E+06 0.00120000
1.86108E+06 0.00120000
1.86213E+06 0.00120000
1.86353E+06 0.00120000
1.86528E+06 0.00120000
1.86703E+06 0.00120000
1.86878E+06 0.00120000
1.87054E+06 0.00120000
1.87230E+06 0.00120000
1.87406E+06 0.00120000
1.87582E+06 0.00120000
1.87759E+06 0.00120000
1.87936E+06 0.00120000
1.88113E+06 0.00120000
1.88291E+06 0.00120000
1.88468E+06 0.00120000
1.88646E+06 0.00120000
1.88824E+06 0.00120000
1.89003E+06 0.00120000
1.89182E+06 0.00120000
1.89361E+06 0.00120000
1.89540E+06 0.00120000
1.89719E+06 0.00120000
1.89899E+06 0.00120000
1.90079E+06 0.00120000
1.90223E+06 0.00120000
1.90331E+06 0.00120000
1.90440E+06 0.00120000
1.90548E+06 0.00120000
1.90656E+06 0.00120000
1.90765E+06 0.00120000
1.90874E+06 0.00120000
1.90983E+06 0.00120000
1.91091E+06 0.00120000
1.91200E+06 0.00120000
1.91309E+06 0.00120000
1.91437E+06 0.00120000
1.91583E+06 0.00120000
1.91728E+06 0.00120000
1.91874E+06 0.00120000
1.92021E+06 0.00120000
1.92167E+06 0.00120000
1.92314E+06 0.00120000
1.92460E+06 0.00120000
1.92570E+06 0.00120000
1.92644E+06 0.00120000
1.92717E+06 0.00120000
1.92791E+06 0.00120000
1.92865E+06 0.00120000
1.92938E+06 0.00120000
1.93012E+06 0.00120000
1.93086E+06 0.00120000
1.93159E+06 0.00120000
1.93233E+06 0.00120000
1.93307E+06 0.00120000
1.93381E+06 0.00120000
1.93510E+06 0.00120000
1.93696E+06 0.00120000
1.93881E+06 0.00120000
1.94067E+06 0.00120000
1.94253E+06 0.00120000
1.94439E+06 0.00120000
1.94625E+06 0.00120000
1.94812E+06 0.00120000
1.94999E+06 0.00120000
1.95186E+06 0.00120000
1.95374E+06 0.00120000
1.95562E+06 0.00120000
1.95750E+06 0.00120000
1.95938E+06 0.00120000
1.96108E+06 0.00120000
1.96259E+06 0.00120000
1.96410E+06 0.00120000
1.96562E+06 0.00120000
1.96713E+06 0.00120000
1.96865E+06 0.00120000
1.97017E+06 0.00120000
1.97169E+06 0.00120000
1.97321E+06 0.00120000
1.97474E+06 0.00120000
1.97626E+06 0.00120000
1.97779E+06 0.00120000
1.97932E+06 0.00120000
1.98086E+06 0.00120000
1.98239E+06 0.00120000
1.98392E+06 0.00120000
1.98546E+06 0.00120000
1.98662E+06 0.00120000
1.98739E+06 0.00120000
1.98816E+06 0.00120000
1.98893E+06 0.00120000
1.98970E+06 0.00120000
1.99047E+06 0.00120000
1.99124E+06 0.00120000
1.99202E+06 0.00120000
1.99279E+06 0.00120000
1.99356E+06 0.00120000
1.99434E+06 0.00120000
1.99511E+06 0.00120000
1.99589E+06 0.00120000
1.99724E+06 0.00120000
1.99918E+06 0.00120000
2.00000E+06 0.00120000
2.00113E+06 0.00119898
2.00308E+06 0.00119721
2.00503E+06 0.00119545
2.00698E+06 0.00119370
2.00893E+06 0.00119194
2.01089E+06 0.00119019
2.01285E+06 0.00118844
2.01482E+06 0.00118668
2.01678E+06 0.00118494
2.01875E+06 0.00118319
2.02073E+06 0.00118143
2.02270E+06 0.00117970
2.02468E+06 0.00117795
2.02666E+06 0.00117621
2.02865E+06 0.00117447
2.03063E+06 0.00117274
2.03262E+06 0.00117100
2.03462E+06 0.00116926
2.03661E+06 0.00116753
2.03801E+06 0.00116632
2.03881E+06 0.00116563
2.03961E+06 0.00116494
2.04041E+06 0.00116425
2.04122E+06 0.00116355
2.04202E+06 0.00116286
2.04282E+06 0.00116217
2.04362E+06 0.00116148
2.04443E+06 0.00116079
2.04523E+06 0.00116010
2.04644E+06 0.00115906
2.04805E+06 0.00115769
2.04966E+06 0.00115631
2.05128E+06 0.00115493
2.05289E+06 0.00115356
2.05451E+06 0.00115219
2.05613E+06 0.00115081
2.05735E+06 0.00114978
2.05816E+06 0.00114910
2.05897E+06 0.00114841
2.05978E+06 0.00114773
2.06060E+06 0.00114704
2.06141E+06 0.00114636
2.06222E+06 0.00114568
2.06304E+06 0.00114499
2.06385E+06 0.00114431
2.06467E+06 0.00114362
2.06548E+06 0.00114295
2.06630E+06 0.00114226
2.06752E+06 0.00114124
2.06916E+06 0.00113987
2.07080E+06 0.00113851
2.07244E+06 0.00113715
2.07408E+06 0.00113579
2.07572E+06 0.00113443
2.07737E+06 0.00113307
2.07902E+06 0.00113171
2.08025E+06 0.00113070
2.08108E+06 0.00113002
2.08190E+06 0.00112934
2.08273E+06 0.00112866
2.08356E+06 0.00112798
2.08438E+06 0.00112731
2.08521E+06 0.00112663
2.08604E+06 0.00112596
2.08687E+06 0.00112528
2.08770E+06 0.00112460
2.08853E+06 0.00112393
2.08936E+06 0.00112325
2.09019E+06 0.00112258
2.09102E+06 0.00112190
2.09185E+06 0.00112123
2.09268E+06 0.00112056
2.09351E+06 0.00111989
2.09435E+06 0.00111921
2.09518E+06 0.00111854
2.09601E+06 0.00111787
2.09727E+06 0.00111685
2.09894E+06 0.00111551
2.10061E+06 0.00111417
2.10229E+06 0.00111282
2.10396E+06 0.00111149
2.10564E+06 0.00111015
2.10732E+06 0.00110881
2.10901E+06 0.00110746
2.11027E+06 0.00110646
2.11111E+06 0.00110580
2.11196E+06 0.00110513
2.11280E+06 0.00110446
2.11364E+06 0.00110380
2.11449E+06 0.00110313
2.11534E+06 0.00110246
2.11618E+06 0.00110179
2.11703E+06 0.00110113
2.11788E+06 0.00110046
2.11872E+06 0.00109980
2.11957E+06 0.00109913
2.12042E+06 0.00109847
2.12127E+06 0.00109780
2.12212E+06 0.00109713
2.12297E+06 0.00109647
2.12382E+06 0.00109581
2.12467E+06 0.00109514
2.12574E+06 0.00109431
2.12701E+06 0.00109332
2.12829E+06 0.00109233
2.13000E+06 0.00109100
2.13214E+06 0.00108935
2.13428E+06 0.00108770
2.13643E+06 0.00108604
2.13858E+06 0.00108439
2.14073E+06 0.00108275
2.14288E+06 0.00108110
2.14504E+06 0.00107946
2.14720E+06 0.00107782
2.14936E+06 0.00107618
2.15153E+06 0.00107454
2.15370E+06 0.00107290
2.15588E+06 0.00107126
2.15805E+06 0.00106963
2.16023E+06 0.00106800
2.16242E+06 0.00106637
2.16461E+06 0.00106473
2.16636E+06 0.00106343
2.16767E+06 0.00106246
2.16899E+06 0.00106148
2.17031E+06 0.00106051
2.17163E+06 0.00105953
2.17295E+06 0.00105856
2.17427E+06 0.00105759
2.17559E+06 0.00105662
2.17692E+06 0.00105564
2.17824E+06 0.00105468
2.17957E+06 0.00105370
2.18134E+06 0.00105241
2.18356E+06 0.00105079
2.18578E+06 0.00104918
2.18800E+06 0.00104757
2.19022E+06 0.00104597
2.19245E+06 0.00104436
2.19469E+06 0.00104275
2.19692E+06 0.00104115
2.19916E+06 0.00103954
2.20141E+06 0.00103794
2.20365E+06 0.00103634
2.20590E+06 0.00103474
2.20816E+06 0.00103314
2.21042E+06 0.00103155
2.21268E+06 0.00102995
2.21494E+06 0.00102836
2.21721E+06 0.00102677
2.21903E+06 0.00102550
2.22039E+06 0.00102455
2.22175E+06 0.00102360
2.22312E+06 0.00102265
2.22449E+06 0.00102170
2.22586E+06 0.00102075
2.22723E+06 0.00101980
2.22860E+06 0.00101885
2.22997E+06 0.00101790
2.23135E+06 0.00101695
2.23272E+06 0.00101601
2.23410E+06 0.00101506
2.23548E+06 0.00101411
2.23686E+06 0.00101316
2.23824E+06 0.00101222
2.24008E+06 0.00101096
2.24239E+06 0.00100939
2.24470E+06 0.00100782
2.24701E+06 0.00100625
2.24933E+06 0.00100468
2.25165E+06 0.00100312
2.25397E+06 0.00100156
2.25630E+06 0.000999994
2.25863E+06 0.000998434
2.26097E+06 0.000996872
2.26330E+06 0.000995321
2.26565E+06 0.000993760
2.26799E+06 0.000992210
2.27034E+06 0.000990658
2.27270E+06 0.000989103
2.27505E+06 0.000987558
2.27741E+06 0.000986011
2.27978E+06 0.000984461
2.28215E+06 0.000982916
2.28452E+06 0.000981374
2.28689E+06 0.000979837
2.28927E+06 0.000978297
2.29166E+06 0.000976755
2.29404E+06 0.000975223
2.29643E+06 0.000973689
2.29883E+06 0.000972152
2.30123E+06 0.000970619
2.30363E+06 0.000969091
2.30603E+06 0.000967566
2.30844E+06 0.000966039
2.31020E+06 0.000964926
2.31021E+06 0.000964918
2.31086E+06 0.000964509
2.31327E+06 0.000962990
2.31569E+06 0.000961469
2.31812E+06 0.000959946
2.32055E+06 0.000958426
2.32298E+06 0.000956910
2.32541E+06 0.000955399
2.32785E+06 0.000953885
2.33030E+06 0.000952369
2.33274E+06 0.000950863
2.33519E+06 0.000949355
2.33740E+06 0.000947998
2.33937E+06 0.000946791
2.34134E+06 0.000945587
2.34331E+06 0.000944385
2.34529E+06 0.000943180
2.34726E+06 0.000941983
2.34924E+06 0.000940783
2.35122E+06 0.000939585
2.35321E+06 0.000938384
2.35519E+06 0.000937191
2.35718E+06 0.000935995
2.35917E+06 0.000934801
2.36117E+06 0.000933604
2.36316E+06 0.000932416
2.36516E+06 0.000931224
2.36667E+06 0.000930326
2.36767E+06 0.000929732
2.36867E+06 0.000929138
2.36967E+06 0.000928545
2.37068E+06 0.000927947
2.37168E+06 0.000927356
2.37268E+06 0.000926765
2.37369E+06 0.000926168
2.37470E+06 0.000925573
2.37570E+06 0.000924984
2.37671E+06 0.000924389
2.37772E+06 0.000923796
2.37873E+06 0.000923203
2.37974E+06 0.000922610
2.38075E+06 0.000922019
2.38176E+06 0.000921427
2.38327E+06 0.000920545
2.38530E+06 0.000919360
2.38732E+06 0.000918184
2.38935E+06 0.000917005
2.39139E+06 0.000915823
2.39342E+06 0.000914648
2.39546E+06 0.000913471
2.39750E+06 0.000912296
2.39954E+06 0.000911123
2.40159E+06 0.000909947
2.40364E+06 0.000908774
2.40569E+06 0.000907603
2.40774E+06 0.000906435
2.40980E+06 0.000905264
2.41186E+06 0.000904095
2.41392E+06 0.000902928
2.41598E+06 0.000901765
2.41805E+06 0.000900598
2.42012E+06 0.000899433
2.42219E+06 0.000898271
2.42427E+06 0.000897106
2.42634E+06 0.000895949
2.42842E+06 0.000894789
2.43051E+06 0.000893625
2.43259E+06 0.000892470
2.43468E+06 0.000891312
2.43677E+06 0.000890156
2.43886E+06 0.000889003
2.44096E+06 0.000887847
2.44306E+06 0.000886693
2.44516E+06 0.000885542
2.44726E+06 0.000884393
2.44937E+06 0.000883241
2.45148E+06 0.000882092
2.45359E+06 0.000880945
2.45571E+06 0.000879796
2.45783E+06 0.000878648
2.45995E+06 0.000877504
2.46207E+06 0.000876361
2.46420E+06 0.000875216
2.46633E+06 0.000874074
2.46846E+06 0.000872933
2.47059E+06 0.000871796
2.47273E+06 0.000870655
2.47487E+06 0.000869517
2.47701E+06 0.000868381
2.47916E+06 0.000867243
2.48131E+06 0.000866107
2.48346E+06 0.000864973
2.48561E+06 0.000863842
2.48723E+06 0.000862991
2.48831E+06 0.000862425
2.48939E+06 0.000861859
2.49047E+06 0.000861294
2.49155E+06 0.000860730
2.49263E+06 0.000860166
2.49372E+06 0.000859598
2.49480E+06 0.000859035
2.49588E+06 0.000858473
2.49697E+06 0.000857906
2.49805E+06 0.000857346
2.49914E+06 0.000856780
2.50000E+06 0.000856335
2.50023E+06 0.000856215
2.50131E+06 0.000855657
2.50240E+06 0.000855093
2.50349E+06 0.000854530
2.50458E+06 0.000853968
2.50594E+06 0.000853267
2.50758E+06 0.000852423
2.50922E+06 0.000851581
2.51086E+06 0.000850740
2.51250E+06 0.000849901
2.51415E+06 0.000849057
2.51579E+06 0.000848221
2.51744E+06 0.000847380
2.51909E+06 0.000846541
2.52074E+06 0.000845703
2.52294E+06 0.000844588
2.52570E+06 0.000843193
2.52846E+06 0.000841802
2.53123E+06 0.000840409
2.53400E+06 0.000839021
2.53677E+06 0.000837636
2.53955E+06 0.000836249
2.54234E+06 0.000834862
2.54513E+06 0.000833479
2.54792E+06 0.000832099
2.55072E+06 0.000830718
2.55353E+06 0.000829336
2.55633E+06 0.000827963
2.55915E+06 0.000826584
2.56196E+06 0.000825213
2.56478E+06 0.000823842
2.56761E+06 0.000822469
2.57044E+06 0.000821100
2.57328E+06 0.000819730
2.57612E+06 0.000818364
2.57896E+06 0.000817002
2.58181E+06 0.000815639
2.58467E+06 0.000814274
2.58753E+06 0.000812914
2.59039E+06 0.000811557
2.59326E+06 0.000810199
2.59614E+06 0.000808841
2.59902E+06 0.000807486
2.60190E+06 0.000806135
2.60421E+06 0.000805054
2.60594E+06 0.000804246
2.60768E+06 0.000803434
2.60942E+06 0.000802624
2.61116E+06 0.000801816
2.61290E+06 0.000801009
2.61464E+06 0.000800203
2.61639E+06 0.000799393
2.61813E+06 0.000798590
2.61988E+06 0.000797784
2.62163E+06 0.000796979
2.62339E+06 0.000796170
2.62514E+06 0.000795368
2.62690E+06 0.000794562
2.62865E+06 0.000793763
2.63041E+06 0.000792960
2.63217E+06 0.000792158
2.63394E+06 0.000791353
2.63570E+06 0.000790554
2.63747E+06 0.000789752
2.63924E+06 0.000788951
2.64101E+06 0.000788152
2.64278E+06 0.000787354
2.64455E+06 0.000786557
2.64633E+06 0.000785757
2.64810E+06 0.000784963
2.64988E+06 0.000784166
2.65166E+06 0.000783370
2.65344E+06 0.000782576
2.65493E+06 0.000781912
2.65612E+06 0.000781382
2.65731E+06 0.000780853
2.65850E+06 0.000780325
2.65970E+06 0.000779793
2.66089E+06 0.000779265
2.66208E+06 0.000778739
2.66328E+06 0.000778208
2.66448E+06 0.000777678
2.66567E+06 0.000777153
2.66687E+06 0.000776625
2.66807E+06 0.000776096
2.66927E+06 0.000775569
2.67077E+06 0.000774910
2.67257E+06 0.000774121
2.67437E+06 0.000773334
2.67618E+06 0.000772543
2.67799E+06 0.000771753
2.67979E+06 0.000770970
2.68161E+06 0.000770179
2.68342E+06 0.000769393
2.68523E+06 0.000768609
2.68705E+06 0.000767822
2.68887E+06 0.000767036
2.69069E+06 0.000766252
2.69251E+06 0.000765469
2.69433E+06 0.000764687
2.69616E+06 0.000763903
2.69799E+06 0.000763119
2.69982E+06 0.000762337
2.70165E+06 0.000761557
2.70348E+06 0.000760777
2.70531E+06 0.000759999
2.70715E+06 0.000759218
2.70899E+06 0.000758439
2.71083E+06 0.000757660
2.71267E+06 0.000756883
2.71452E+06 0.000756104
2.71636E+06 0.000755329
2.71821E+06 0.000754552
2.72006E+06 0.000753776
2.72191E+06 0.000753002
2.72377E+06 0.000752224
2.72562E+06 0.000751452
2.72748E+06 0.000750678
2.72934E+06 0.000749904
2.73120E+06 0.000749132
2.73307E+06 0.000748357
2.73493E+06 0.000747588
2.73680E+06 0.000746815
2.73867E+06 0.000746044
2.74054E+06 0.000745275
2.74241E+06 0.000744507
2.74429E+06 0.000743735
2.74616E+06 0.000742970
2.74804E+06 0.000742201
2.74992E+06 0.000741434
2.75000E+06 0.000741402
2.75180E+06 0.000740668
2.75400E+06 0.000739774
2.75652E+06 0.000738752
2.75904E+06 0.000737732
2.76156E+06 0.000736714
2.76409E+06 0.000735694
2.76662E+06 0.000734677
2.76915E+06 0.000733663
2.77169E+06 0.000732646
2.77423E+06 0.000731632
2.77677E+06 0.000730620
2.77932E+06 0.000729607
2.78187E+06 0.000728596
2.78443E+06 0.000727583
2.78698E+06 0.000726577
2.78955E+06 0.000725565
2.79211E+06 0.000724559
2.79468E+06 0.000723552
2.79725E+06 0.000722547
2.79983E+06 0.000721540
2.80241E+06 0.000720536
2.80499E+06 0.000719534
2.80758E+06 0.000718531
2.81017E+06 0.000717530
2.81276E+06 0.000716531
2.81536E+06 0.000715531
2.81796E+06 0.000714533
2.82056E+06 0.000713537
2.82317E+06 0.000712540
2.82578E+06 0.000711545
2.82840E+06 0.000710548
2.83101E+06 0.000709558
2.83364E+06 0.000708562
2.83626E+06 0.000707573
2.83889E+06 0.000706582
2.84153E+06 0.000705590
2.84416E+06 0.000704603
2.84681E+06 0.000703612
2.84945E+06 0.000702626
2.85210E+06 0.000701639
2.85475E+06 0.000700655
2.85741E+06 0.000699669
2.86007E+06 0.000698685
2.86273E+06 0.000697703
2.86539E+06 0.000696724
2.86807E+06 0.000695740
2.87074E+06 0.000694762
2.87308E+06 0.000693906
2.87509E+06 0.000693173
2.87711E+06 0.000692437
2.87912E+06 0.000691706
2.88114E+06 0.000690973
2.88316E+06 0.000690241
2.88518E+06 0.000689511
2.88720E+06 0.000688781
2.88923E+06 0.000688050
2.89125E+06 0.000687323
2.89328E+06 0.000686594
2.89532E+06 0.000685863
2.89735E+06 0.000685136
2.89939E+06 0.000684407
2.90143E+06 0.000683680
2.90347E+06 0.000682954
2.90551E+06 0.000682229
2.90755E+06 0.000681505
2.90960E+06 0.000680779
2.91165E+06 0.000680054
2.91370E+06 0.000679331
2.91575E+06 0.000678609
2.91747E+06 0.000678004
2.91884E+06 0.000677523
2.92021E+06 0.000677042
2.92158E+06 0.000676562
2.92296E+06 0.000676079
2.92433E+06 0.000675601
2.92571E+06 0.000675119
2.92709E+06 0.000674637
2.92847E+06 0.000674157
2.92985E+06 0.000673677
2.93123E+06 0.000673197
2.93261E+06 0.000672718
2.93399E+06 0.000672240
2.93537E+06 0.000671762
2.93676E+06 0.000671281
2.93814E+06 0.000670805
2.93953E+06 0.000670325
2.94091E+06 0.000669849
2.94230E+06 0.000669371
2.94369E+06 0.000668893
2.94508E+06 0.000668416
2.94647E+06 0.000667939
2.94786E+06 0.000667463
2.94926E+06 0.000666984
2.95065E+06 0.000666509
2.95205E+06 0.000666031
2.95414E+06 0.000665319
2.95693E+06 0.000664370
2.95974E+06 0.000663416
2.96254E+06 0.000662468
2.96535E+06 0.000661519
2.96816E+06 0.000660572
2.97097E+06 0.000659628
2.97379E+06 0.000658682
2.97662E+06 0.000657736
2.97945E+06 0.000656791
2.98228E+06 0.000655849
2.98511E+06 0.000654909
2.98795E+06 0.000653968
2.99080E+06 0.000653026
2.99329E+06 0.000652205
2.99543E+06 0.000651500
2.99757E+06 0.000650797
2.99971E+06 0.000650095
3.00000E+06 0.000650000
3.00186E+06 0.000649766
3.00400E+06 0.000649497
3.00615E+06 0.000649228
3.00831E+06 0.000648957
3.01046E+06 0.000648688
3.01262E+06 0.000648418
3.01478E+06 0.000648148
3.01694E+06 0.000647878
3.01910E+06 0.000647609
3.02127E+06 0.000647339
3.02344E+06 0.000647069
3.02561E+06 0.000646799
3.02778E+06 0.000646530
3.02996E+06 0.000646260
3.03213E+06 0.000645991
3.03431E+06 0.000645722
3.03650E+06 0.000645451
3.03868E+06 0.000645183
3.04087E+06 0.000644913
3.04306E+06 0.000644643
3.04525E+06 0.000644374
3.04745E+06 0.000644104
3.04964E+06 0.000643835
3.05184E+06 0.000643566
3.05404E+06 0.000643296
3.05588E+06 0.000643071
3.05735E+06 0.000642892
3.05882E+06 0.000642712
3.06029E+06 0.000642533
3.06177E+06 0.000642353
3.06324E+06 0.000642174
3.06472E+06 0.000641994
3.06619E+06 0.000641815
3.06767E+06 0.000641635
3.06915E+06 0.000641455
3.07063E+06 0.000641276
3.07285E+06 0.000641007
3.07582E+06 0.000640647
3.07879E+06 0.000640288
3.08176E+06 0.000639930
3.08474E+06 0.000639571
3.08773E+06 0.000639211
3.09072E+06 0.000638852
3.09371E+06 0.000638493
3.09595E+06 0.000638225
3.09745E+06 0.000638045
3.09896E+06 0.000637865
3.10046E+06 0.000637686
3.10196E+06 0.000637507
3.10346E+06 0.000637328
3.10497E+06 0.000637148
3.10647E+06 0.000636969
3.10798E+06 0.000636789
3.10949E+06 0.000636610
3.11100E+06 0.000636430
3.11251E+06 0.000636251
3.11402E+06 0.000636072
3.11553E+06 0.000635893
3.11705E+06 0.000635713
3.11856E+06 0.000635534
3.12008E+06 0.000635354
3.12159E+06 0.000635176
3.12311E+06 0.000634996
3.12463E+06 0.000634817
3.12615E+06 0.000634637
3.12767E+06 0.000634458
3.12920E+06 0.000634278
3.13072E+06 0.000634099
3.13224E+06 0.000633921
3.13377E+06 0.000633741
3.13530E+06 0.000633561
3.13682E+06 0.000633383
3.13835E+06 0.000633204
3.13989E+06 0.000633023
3.14142E+06 0.000632844
3.14295E+06 0.000632665
3.14448E+06 0.000632487
3.14602E+06 0.000632307
3.14755E+06 0.000632128
3.14909E+06 0.000631949
3.15063E+06 0.000631769
3.15217E+06 0.000631590
3.15371E+06 0.000631411
3.15525E+06 0.000631232
3.15679E+06 0.000631053
3.15834E+06 0.000630873
3.15988E+06 0.000630695
3.16143E+06 0.000630515
3.16298E+06 0.000630336
3.16452E+06 0.000630158
3.16607E+06 0.000629978
3.16762E+06 0.000629799
3.16918E+06 0.000629619
3.17073E+06 0.000629441
3.17228E+06 0.000629262
3.17384E+06 0.000629082
3.17540E+06 0.000628903
3.17695E+06 0.000628725
3.17851E+06 0.000628546
3.18085E+06 0.000628277
3.18398E+06 0.000627918
3.18711E+06 0.000627560
3.19024E+06 0.000627202
3.19338E+06 0.000626844
3.19652E+06 0.000626487
3.19967E+06 0.000626128
3.20282E+06 0.000625771
3.20598E+06 0.000625412
3.20914E+06 0.000625055
3.21191E+06 0.000624742
3.21429E+06 0.000624473
3.21667E+06 0.000624205
3.21905E+06 0.000623937
3.22143E+06 0.000623669
3.22382E+06 0.000623400
3.22621E+06 0.000623132
3.22861E+06 0.000622863
3.23100E+06 0.000622596
3.23340E+06 0.000622327
3.23580E+06 0.000622059
3.23821E+06 0.000621790
3.24061E+06 0.000621523
3.24302E+06 0.000621255
3.24543E+06 0.000620987
3.24785E+06 0.000620718
3.25026E+06 0.000620451
3.25269E+06 0.000620181
3.25511E+06 0.000619914
3.25753E+06 0.000619646
3.26037E+06 0.000619333
3.26361E+06 0.000618976
3.26686E+06 0.000618618
3.27011E+06 0.000618261
3.27337E+06 0.000617903
3.27663E+06 0.000617546
3.27989E+06 0.000617190
3.28317E+06 0.000616831
3.28644E+06 0.000616475
3.28972E+06 0.000616118
3.29301E+06 0.000615761
3.29630E+06 0.000615404
3.29960E+06 0.000615046
3.30290E+06 0.000614689
3.30621E+06 0.000614332
3.30952E+06 0.000613975
3.31283E+06 0.000613619
3.31616E+06 0.000613261
3.31948E+06 0.000612904
3.32281E+06 0.000612548
3.32615E+06 0.000612190
3.32949E+06 0.000611834
3.33284E+06 0.000611477
3.33619E+06 0.000611120
3.33954E+06 0.000610764
3.34291E+06 0.000610406
3.34627E+06 0.000610050
3.34964E+06 0.000609694
3.35302E+06 0.000609337
3.35640E+06 0.000608980
3.35979E+06 0.000608624
3.36318E+06 0.000608267
3.36658E+06 0.000607910
3.36998E+06 0.000607554
3.37339E+06 0.000607197
3.37638E+06 0.000606885
3.37894E+06 0.000606618
3.38151E+06 0.000606350
3.38407E+06 0.000606084
3.38664E+06 0.000605817
3.38922E+06 0.000605549
3.39180E+06 0.000605282
3.39438E+06 0.000605014
3.39696E+06 0.000604747
3.39955E+06 0.000604480
3.40214E+06 0.000604213
3.40473E+06 0.000603946
3.40732E+06 0.000603679
3.40992E+06 0.000603412
3.41252E+06 0.000603145
3.41513E+06 0.000602877
3.41773E+06 0.000602611
3.42034E+06 0.000602344
3.42296E+06 0.000602076
3.42557E+06 0.000601809
3.42819E+06 0.000601542
3.43081E+06 0.000601275
3.43344E+06 0.000601008
3.43606E+06 0.000600742
3.43870E+06 0.000600474
3.44133E+06 0.000600207
3.44441E+06 0.000599896
3.44793E+06 0.000599540
3.45145E+06 0.000599185
3.45499E+06 0.000598828
3.45853E+06 0.000598472
3.46163E+06 0.000598161
3.46429E+06 0.000597894
3.46695E+06 0.000597628
3.46962E+06 0.000597361
3.47229E+06 0.000597094
3.47496E+06 0.000596827
3.47763E+06 0.000596561
3.48031E+06 0.000596295
3.48300E+06 0.000596027
3.48568E+06 0.000595761
3.48837E+06 0.000595494
3.49106E+06 0.000595228
3.49375E+06 0.000594961
3.49645E+06 0.000594695
3.49915E+06 0.000594428
3.50000E+06 0.000594344
3.50186E+06 0.000594161
3.50456E+06 0.000593895
3.50727E+06 0.000593629
3.50999E+06 0.000593361
3.51270E+06 0.000593096
3.51542E+06 0.000592829
3.51815E+06 0.000592562
3.52087E+06 0.000592296
3.52360E+06 0.000592029
3.52633E+06 0.000591763
3.52907E+06 0.000591496
3.53181E+06 0.000591230
3.53409E+06 0.000591008
3.53592E+06 0.000590831
3.53775E+06 0.000590653
3.53959E+06 0.000590475
3.54142E+06 0.000590298
3.54326E+06 0.000590120
3.54509E+06 0.000589943
3.54693E+06 0.000589765
3.54923E+06 0.000589543
3.55199E+06 0.000589277
3.55476E+06 0.000589010
3.55753E+06 0.000588744
3.56030E+06 0.000588478
3.56307E+06 0.000588212
3.56585E+06 0.000587946
3.56863E+06 0.000587680
3.57142E+06 0.000587413
3.57421E+06 0.000587147
3.57700E+06 0.000586881
3.57979E+06 0.000586615
3.58259E+06 0.000586349
3.58539E+06 0.000586083
3.58820E+06 0.000585817
3.59054E+06 0.000585595
3.59241E+06 0.000585418
3.59429E+06 0.000585240
3.59616E+06 0.000585063
3.59804E+06 0.000584886
3.59992E+06 0.000584708
3.60180E+06 0.000584531
3.60368E+06 0.000584354
3.60557E+06 0.000584176
3.60745E+06 0.000583999
3.60934E+06 0.000583822
3.61170E+06 0.000583600
3.61453E+06 0.000583335
3.61570E+06 0.000583225
3.61572E+06 0.000583224
3.61737E+06 0.000583069
3.62022E+06 0.000582802
3.62306E+06 0.000582537
3.62591E+06 0.000582271
3.62876E+06 0.000582005
3.63162E+06 0.000581739
3.63448E+06 0.000581473
3.63734E+06 0.000581208
3.64021E+06 0.000580942
3.64308E+06 0.000580676
3.64595E+06 0.000580410
3.64883E+06 0.000580144
3.65171E+06 0.000579878
3.65459E+06 0.000579613
3.65748E+06 0.000579347
3.66037E+06 0.000579081
3.66326E+06 0.000578816
3.66616E+06 0.000578550
3.66906E+06 0.000578285
3.67196E+06 0.000578019
3.67487E+06 0.000577753
3.67778E+06 0.000577488
3.68069E+06 0.000577223
3.68361E+06 0.000576957
3.68604E+06 0.000576736
3.68799E+06 0.000576559
3.68994E+06 0.000576382
3.69189E+06 0.000576205
3.69385E+06 0.000576028
3.69580E+06 0.000575851
3.69776E+06 0.000575674
3.69972E+06 0.000575497
3.70168E+06 0.000575320
3.70364E+06 0.000575143
3.70560E+06 0.000574966
3.70757E+06 0.000574789
3.70953E+06 0.000574613
3.71150E+06 0.000574435
3.71347E+06 0.000574259
3.71593E+06 0.000574038
3.71889E+06 0.000573772
3.72186E+06 0.000573506
3.72482E+06 0.000573242
3.72779E+06 0.000572976
3.73077E+06 0.000572711
3.73374E+06 0.000572446
3.73672E+06 0.000572181
3.73971E+06 0.000571915
3.74270E+06 0.000571650
3.74569E+06 0.000571385
3.74868E+06 0.000571120
3.75168E+06 0.000570855
3.75469E+06 0.000570589
3.75769E+06 0.000570325
3.76070E+06 0.000570059
3.76372E+06 0.000569794
3.76673E+06 0.000569529
3.76975E+06 0.000569264
3.77278E+06 0.000568999
3.77580E+06 0.000568735
3.77884E+06 0.000568469
3.78187E+06 0.000568204
3.78491E+06 0.000567939
3.78795E+06 0.000567674
3.79100E+06 0.000567409
3.79405E+06 0.000567144
3.79710E+06 0.000566880
3.80016E+06 0.000566615
3.80322E+06 0.000566350
3.80629E+06 0.000566085
3.80936E+06 0.000565820
3.81243E+06 0.000565555
3.81499E+06 0.000565335
3.81704E+06 0.000565158
3.81910E+06 0.000564981
3.82115E+06 0.000564805
3.82321E+06 0.000564628
3.82527E+06 0.000564452
3.82784E+06 0.000564232
3.83094E+06 0.000563967
3.83404E+06 0.000563702
3.83662E+06 0.000563482
3.83869E+06 0.000563305
3.84076E+06 0.000563129
3.84284E+06 0.000562952
3.84491E+06 0.000562776
3.84699E+06 0.000562599
3.84907E+06 0.000562422
3.85115E+06 0.000562246
3.85375E+06 0.000562026
3.85687E+06 0.000561762
3.86000E+06 0.000561497
3.86314E+06 0.000561232
3.86628E+06 0.000560967
3.86942E+06 0.000560703
3.87256E+06 0.000560439
3.87571E+06 0.000560174
3.87886E+06 0.000559910
3.88202E+06 0.000559645
3.88518E+06 0.000559381
3.88835E+06 0.000559116
3.89152E+06 0.000558852
3.89469E+06 0.000558588
3.89690E+06 0.000558404
3.89786E+06 0.000558324
3.90104E+06 0.000558059
3.90423E+06 0.000557795
3.90742E+06 0.000557530
3.91061E+06 0.000557266
3.91380E+06 0.000557002
3.91550E+06 0.000556862
3.91700E+06 0.000556738
3.92021E+06 0.000556473
3.92341E+06 0.000556209
3.92663E+06 0.000555945
3.92984E+06 0.000555681
3.93306E+06 0.000555417
3.93628E+06 0.000555153
3.93951E+06 0.000554888
3.94274E+06 0.000554624
3.94598E+06 0.000554360
3.94922E+06 0.000554096
3.95246E+06 0.000553832
3.95571E+06 0.000553568
3.95896E+06 0.000553304
3.96222E+06 0.000553039
3.96547E+06 0.000552776
3.96874E+06 0.000552512
3.97201E+06 0.000552247
3.97528E+06 0.000551984
3.97855E+06 0.000551720
3.98183E+06 0.000551456
3.98512E+06 0.000551192
3.98840E+06 0.000550928
3.99170E+06 0.000550664
3.99499E+06 0.000550400
3.99829E+06 0.000550137
4.00000E+06 0.000550000
4.00160E+06 0.000549734
4.00490E+06 0.000549187
4.00822E+06 0.000548637
4.01153E+06 0.000548090
4.01485E+06 0.000547543
4.01818E+06 0.000546994
4.02151E+06 0.000546447
4.02484E+06 0.000545901
4.02818E+06 0.000545354
4.03152E+06 0.000544808
4.03486E+06 0.000544263
4.03821E+06 0.000543717
4.04157E+06 0.000543171
4.04493E+06 0.000542626
4.04829E+06 0.000542082
4.05165E+06 0.000541538
4.05502E+06 0.000540994
4.05840E+06 0.000540450
4.06178E+06 0.000539907
4.06460E+06 0.000539454
4.06686E+06 0.000539092
4.06911E+06 0.000538731
4.07138E+06 0.000538369
4.07364E+06 0.000538008
4.07590E+06 0.000537647
4.07817E+06 0.000537285
4.08044E+06 0.000536924
4.08271E+06 0.000536564
4.08498E+06 0.000536203
4.08783E+06 0.000535751
4.09124E+06 0.000535212
4.09466E+06 0.000534672
4.09809E+06 0.000534131
4.10152E+06 0.000533591
4.10438E+06 0.000533142
4.10667E+06 0.000532783
4.10896E+06 0.000532424
4.11125E+06 0.000532065
4.11355E+06 0.000531706
4.11585E+06 0.000531347
4.11815E+06 0.000530988
4.12045E+06 0.000530630
4.12276E+06 0.000530271
4.12506E+06 0.000529914
4.12795E+06 0.000529465
4.13141E+06 0.000528929
4.13489E+06 0.000528392
4.13836E+06 0.000527856
4.14184E+06 0.000527320
4.14532E+06 0.000526785
4.14881E+06 0.000526250
4.15231E+06 0.000525714
4.15522E+06 0.000525269
4.15755E+06 0.000524913
4.15989E+06 0.000524556
4.16223E+06 0.000524200
4.16457E+06 0.000523844
4.16691E+06 0.000523489
4.16925E+06 0.000523134
4.17160E+06 0.000522778
4.17394E+06 0.000522423
4.17629E+06 0.000522068
4.17864E+06 0.000521713
4.18100E+06 0.000521357
4.18335E+06 0.000521004
4.18571E+06 0.000520649
4.18807E+06 0.000520294
4.19043E+06 0.000519940
4.19279E+06 0.000519586
4.19516E+06 0.000519232
4.19753E+06 0.000518877
4.19990E+06 0.000518524
4.20227E+06 0.000518170
4.20464E+06 0.000517817
4.20702E+06 0.000517463
4.20939E+06 0.000517111
4.21177E+06 0.000516758
4.21415E+06 0.000516405
4.21654E+06 0.000516052
4.21892E+06 0.000515700
4.22131E+06 0.000515347
4.22370E+06 0.000514995
4.22609E+06 0.000514643
4.22849E+06 0.000514290
4.23088E+06 0.000513939
4.23328E+06 0.000513587
4.23568E+06 0.000513235
4.23868E+06 0.000512796
4.24229E+06 0.000512269
4.24590E+06 0.000511742
4.24952E+06 0.000511216
4.25314E+06 0.000510690
4.25676E+06 0.000510165
4.26039E+06 0.000509640
4.26403E+06 0.000509114
4.26767E+06 0.000508589
4.27131E+06 0.000508066
4.27496E+06 0.000507541
4.27862E+06 0.000507017
4.28228E+06 0.000506493
4.28594E+06 0.000505971
4.28961E+06 0.000505447
4.29328E+06 0.000504925
4.29696E+06 0.000504403
4.30064E+06 0.000503881
4.30433E+06 0.000503359
4.30802E+06 0.000502838
4.31171E+06 0.000502318
4.31541E+06 0.000501798
4.31912E+06 0.000501277
4.32283E+06 0.000500757
4.32655E+06 0.000500237
4.33027E+06 0.000499718
4.33399E+06 0.000499199
4.33772E+06 0.000498681
4.34146E+06 0.000498162
4.34150E+06 0.000498156
4.34155E+06 0.000498150
4.34520E+06 0.000497643
4.34894E+06 0.000497126
4.35269E+06 0.000496609
4.35582E+06 0.000496178
4.35832E+06 0.000495834
4.36083E+06 0.000495489
4.36334E+06 0.000495144
4.36648E+06 0.000494714
4.37025E+06 0.000494198
4.37403E+06 0.000493682
4.37781E+06 0.000493167
4.38160E+06 0.000492652
4.38539E+06 0.000492137
4.38919E+06 0.000491622
4.39299E+06 0.000491109
4.39679E+06 0.000490596
4.40061E+06 0.000490081
4.40442E+06 0.000489569
4.40824E+06 0.000489056
4.41207E+06 0.000488543
4.41590E+06 0.000488031
4.41974E+06 0.000487519
4.42358E+06 0.000487007
4.42743E+06 0.000486496
4.43128E+06 0.000485985
4.43513E+06 0.000485475
4.43900E+06 0.000484964
4.44286E+06 0.000484455
4.44673E+06 0.000483945
4.45061E+06 0.000483435
4.45449E+06 0.000482926
4.45838E+06 0.000482417
4.46227E+06 0.000481909
4.46617E+06 0.000481401
4.47007E+06 0.000480893
4.47398E+06 0.000480385
4.47789E+06 0.000479878
4.48181E+06 0.000479371
4.48573E+06 0.000478865
4.48966E+06 0.000478358
4.49359E+06 0.000477853
4.49753E+06 0.000477347
4.50000E+06 0.000477031
4.50148E+06 0.000476841
4.50542E+06 0.000476337
4.50938E+06 0.000475832
4.51268E+06 0.000475411
4.51532E+06 0.000475075
4.51796E+06 0.000474740
4.52061E+06 0.000474404
4.52326E+06 0.000474068
4.52591E+06 0.000473732
4.52856E+06 0.000473397
4.53122E+06 0.000473061
4.53388E+06 0.000472726
4.53654E+06 0.000472391
4.53920E+06 0.000472057
4.54187E+06 0.000471721
4.54453E+06 0.000471388
4.54720E+06 0.000471053
4.54988E+06 0.000470718
4.55255E+06 0.000470384
4.55523E+06 0.000470050
4.55791E+06 0.000469716
4.56059E+06 0.000469382
4.56327E+06 0.000469049
4.56596E+06 0.000468715
4.56865E+06 0.000468382
4.57134E+06 0.000468049
4.57403E+06 0.000467716
4.57673E+06 0.000467383
4.57943E+06 0.000467050
4.58213E+06 0.000466717
4.58551E+06 0.000466301
4.58957E+06 0.000465803
4.59363E+06 0.000465305
4.59770E+06 0.000464808
4.60178E+06 0.000464310
4.60586E+06 0.000463813
4.60995E+06 0.000463316
4.61404E+06 0.000462819
4.61814E+06 0.000462323
4.62224E+06 0.000461827
4.62635E+06 0.000461331
4.63047E+06 0.000460835
4.63459E+06 0.000460340
4.63871E+06 0.000459846
4.64285E+06 0.000459351
4.64698E+06 0.000458858
4.65112E+06 0.000458364
4.65527E+06 0.000457870
4.65943E+06 0.000457376
4.66359E+06 0.000456883
4.66775E+06 0.000456391
4.67192E+06 0.000455899
4.67610E+06 0.000455407
4.68028E+06 0.000454915
4.68446E+06 0.000454425
4.68866E+06 0.000453933
4.69216E+06 0.000453524
4.69496E+06 0.000453197
4.69776E+06 0.000452870
4.70057E+06 0.000452543
4.70338E+06 0.000452216
4.70619E+06 0.000451890
4.70900E+06 0.000451564
4.71182E+06 0.000451238
4.71464E+06 0.000450912
4.71746E+06 0.000450586
4.72028E+06 0.000450261
4.72311E+06 0.000449935
4.72594E+06 0.000449609
4.72877E+06 0.000449284
4.73160E+06 0.000448959
4.73444E+06 0.000448634
4.73728E+06 0.000448309
4.74012E+06 0.000447984
4.74297E+06 0.000447659
4.74653E+06 0.000447253
4.75080E+06 0.000446767
4.75509E+06 0.000446280
4.75937E+06 0.000445795
4.76367E+06 0.000445309
4.76797E+06 0.000444824
4.77227E+06 0.000444340
4.77658E+06 0.000443855
4.78090E+06 0.000443370
4.78523E+06 0.000442886
4.78955E+06 0.000442403
4.79317E+06 0.000441999
4.79606E+06 0.000441677
4.79895E+06 0.000441356
4.80185E+06 0.000441034
4.80475E+06 0.000440712
4.80766E+06 0.000440390
4.81056E+06 0.000440069
4.81347E+06 0.000439747
4.81638E+06 0.000439426
4.81929E+06 0.000439106
4.82221E+06 0.000438784
4.82513E+06 0.000438464
4.82805E+06 0.000438143
4.83098E+06 0.000437822
4.83390E+06 0.000437502
4.83683E+06 0.000437182
4.83977E+06 0.000436861
4.84270E+06 0.000436542
4.84564E+06 0.000436222
4.84858E+06 0.000435902
4.85152E+06 0.000435583
4.85447E+06 0.000435263
4.85741E+06 0.000434945
4.86037E+06 0.000434625
4.86332E+06 0.000434306
4.86628E+06 0.000433987
4.86924E+06 0.000433668
4.87220E+06 0.000433350
4.87516E+06 0.000433032
4.87813E+06 0.000432713
4.88110E+06 0.000432395
4.88407E+06 0.000432077
4.88705E+06 0.000431759
4.89077E+06 0.000431362
4.89524E+06 0.000430886
4.89972E+06 0.000430410
4.90346E+06 0.000430013
4.90646E+06 0.000429696
4.90945E+06 0.000429379
4.91245E+06 0.000429063
4.91545E+06 0.000428746
4.91846E+06 0.000428429
4.92146E+06 0.000428113
4.92447E+06 0.000427797
4.92749E+06 0.000427480
4.93050E+06 0.000427165
4.93427E+06 0.000426771
4.93881E+06 0.000426297
4.94335E+06 0.000425824
4.94789E+06 0.000425351
4.95245E+06 0.000424878
4.95700E+06 0.000424407
4.96157E+06 0.000423935
4.96614E+06 0.000423463
4.97072E+06 0.000422992
4.97080E+06 0.000422983
4.97083E+06 0.000422980
4.97530E+06 0.000422521
4.97989E+06 0.000422051
4.98449E+06 0.000421580
4.98909E+06 0.000421110
4.99250E+06 0.000420763
4.99254E+06 0.000420759
4.99370E+06 0.000420640
4.99832E+06 0.000420171
5.00000E+06 0.000420000
5.00294E+06 0.000420123
5.00757E+06 0.000420317
5.01220E+06 0.000420511
5.01685E+06 0.000420706
5.02149E+06 0.000420900
5.02615E+06 0.000421095
5.03081E+06 0.000421289
5.03470E+06 0.000421452
5.03781E+06 0.000421582
5.04093E+06 0.000421712
5.04405E+06 0.000421842
5.04717E+06 0.000421972
5.05030E+06 0.000422103
5.05343E+06 0.000422233
5.05656E+06 0.000422364
5.05970E+06 0.000422495
5.06283E+06 0.000422625
5.06598E+06 0.000422756
5.06912E+06 0.000422887
5.07227E+06 0.000423018
5.07542E+06 0.000423149
5.07857E+06 0.000423280
5.08172E+06 0.000423411
5.08488E+06 0.000423543
5.08883E+06 0.000423707
5.09358E+06 0.000423904
5.09834E+06 0.000424102
5.10310E+06 0.000424299
5.10787E+06 0.000424497
5.11264E+06 0.000424695
5.11743E+06 0.000424893
5.12222E+06 0.000425092
5.12701E+06 0.000425290
5.13101E+06 0.000425455
5.13422E+06 0.000425588
5.13743E+06 0.000425721
5.14064E+06 0.000425854
5.14385E+06 0.000425986
5.14707E+06 0.000426119
5.15029E+06 0.000426252
5.15351E+06 0.000426385
5.15674E+06 0.000426519
5.15996E+06 0.000426652
5.16320E+06 0.000426785
5.16643E+06 0.000426918
5.16830E+06 0.000426995
5.16967E+06 0.000427052
5.17291E+06 0.000427185
5.17697E+06 0.000427353
5.18184E+06 0.000427553
5.18672E+06 0.000427754
5.19161E+06 0.000427955
5.19650E+06 0.000428156
5.20140E+06 0.000428358
5.20631E+06 0.000428560
5.21122E+06 0.000428761
5.21614E+06 0.000428963
5.22107E+06 0.000429165
5.22601E+06 0.000429368
5.23095E+06 0.000429570
5.23590E+06 0.000429773
5.24086E+06 0.000429976
5.24582E+06 0.000430179
5.25079E+06 0.000430383
5.25577E+06 0.000430586
5.26076E+06 0.000430790
5.26575E+06 0.000430994
5.27075E+06 0.000431198
5.27575E+06 0.000431402
5.28077E+06 0.000431607
5.28579E+06 0.000431812
5.29082E+06 0.000432017
5.29585E+06 0.000432221
5.30089E+06 0.000432427
5.30594E+06 0.000432632
5.31100E+06 0.000432838
5.31606E+06 0.000433044
5.32114E+06 0.000433250
5.32621E+06 0.000433456
5.33130E+06 0.000433663
5.33639E+06 0.000433869
5.34149E+06 0.000434076
5.34660E+06 0.000434283
5.35172E+06 0.000434491
5.35684E+06 0.000434698
5.35970E+06 0.000434814
5.36197E+06 0.000434906
5.36711E+06 0.000435114
5.37225E+06 0.000435321
5.37741E+06 0.000435530
5.38256E+06 0.000435738
5.38773E+06 0.000435947
5.39291E+06 0.000436156
5.39809E+06 0.000436365
5.40328E+06 0.000436574
5.40847E+06 0.000436783
5.41368E+06 0.000436993
5.41889E+06 0.000437203
5.42411E+06 0.000437413
5.42847E+06 0.000437589
5.43195E+06 0.000437729
5.43545E+06 0.000437869
5.43894E+06 0.000438010
5.44244E+06 0.000438150
5.44594E+06 0.000438291
5.44945E+06 0.000438432
5.45295E+06 0.000438572
5.45647E+06 0.000438713
5.45998E+06 0.000438854
5.46350E+06 0.000438995
5.46702E+06 0.000439136
5.47055E+06 0.000439278
5.47408E+06 0.000439419
5.47761E+06 0.000439561
5.48115E+06 0.000439702
5.48469E+06 0.000439844
5.48823E+06 0.000439986
5.49177E+06 0.000440127
5.49532E+06 0.000440269
5.49888E+06 0.000440411
5.50000E+06 0.000440456
5.50243E+06 0.000440553
5.50599E+06 0.000440696
5.50956E+06 0.000440838
5.51312E+06 0.000440980
5.51669E+06 0.000441123
5.52027E+06 0.000441265
5.52385E+06 0.000441408
5.52832E+06 0.000441586
5.53370E+06 0.000441801
5.53909E+06 0.000442015
5.54448E+06 0.000442230
5.54988E+06 0.000442445
5.55530E+06 0.000442660
5.56071E+06 0.000442875
5.56614E+06 0.000443091
5.57158E+06 0.000443307
5.57702E+06 0.000443523
5.58247E+06 0.000443739
5.58793E+06 0.000443956
5.59339E+06 0.000444172
5.59887E+06 0.000444389
5.60435E+06 0.000444606
5.60984E+06 0.000444824
5.61534E+06 0.000445041
5.62085E+06 0.000445259
5.62636E+06 0.000445477
5.63189E+06 0.000445695
5.63742E+06 0.000445913
5.64296E+06 0.000446132
5.64851E+06 0.000446351
5.65406E+06 0.000446570
5.65963E+06 0.000446789
5.66520E+06 0.000447008
5.67078E+06 0.000447228
5.67637E+06 0.000447448
5.68197E+06 0.000447668
5.68757E+06 0.000447888
5.69319E+06 0.000448109
5.69881E+06 0.000448330
5.70444E+06 0.000448551
5.71008E+06 0.000448772
5.71572E+06 0.000448993
5.72138E+06 0.000449215
5.72705E+06 0.000449437
5.73272E+06 0.000449659
5.73840E+06 0.000449881
5.74409E+06 0.000450104
5.74979E+06 0.000450326
5.75549E+06 0.000450549
5.76121E+06 0.000450772
5.76693E+06 0.000450996
5.77266E+06 0.000451219
5.77841E+06 0.000451443
5.78415E+06 0.000451667
5.78991E+06 0.000451892
5.79568E+06 0.000452116
5.80146E+06 0.000452341
5.80724E+06 0.000452566
5.81303E+06 0.000452791
5.81883E+06 0.000453016
5.82464E+06 0.000453242
5.83046E+06 0.000453468
5.83629E+06 0.000453694
5.84213E+06 0.000453921
5.84797E+06 0.000454147
5.85285E+06 0.000454336
5.85676E+06 0.000454487
5.86067E+06 0.000454639
5.86458E+06 0.000454790
5.86850E+06 0.000454942
5.87242E+06 0.000455093
5.87635E+06 0.000455245
5.88028E+06 0.000455397
5.88421E+06 0.000455549
5.88815E+06 0.000455701
5.89209E+06 0.000455853
5.89604E+06 0.000456006
5.89999E+06 0.000456158
5.90394E+06 0.000456311
5.90790E+06 0.000456463
5.91186E+06 0.000456616
5.91583E+06 0.000456769
5.91980E+06 0.000456922
5.92377E+06 0.000457075
5.92775E+06 0.000457228
5.93173E+06 0.000457381
5.93572E+06 0.000457534
5.93971E+06 0.000457688
5.94370E+06 0.000457841
5.94770E+06 0.000457995
5.95170E+06 0.000458149
5.95571E+06 0.000458303
5.95972E+06 0.000458457
5.96373E+06 0.000458610
5.96876E+06 0.000458803
5.97479E+06 0.000459035
5.98084E+06 0.000459267
5.98690E+06 0.000459499
5.99296E+06 0.000459731
5.99903E+06 0.000459963
6.00000E+06 0.000460000
6.00512E+06 0.000459644
6.01121E+06 0.000459222
6.01731E+06 0.000458800
6.02342E+06 0.000458378
6.02954E+06 0.000457956
6.03567E+06 0.000457535
6.04181E+06 0.000457113
6.04796E+06 0.000456692
6.05412E+06 0.000456270
6.06028E+06 0.000455850
6.06646E+06 0.000455429
6.07265E+06 0.000455008
6.07884E+06 0.000454588
6.08505E+06 0.000454167
6.09126E+06 0.000453747
6.09670E+06 0.000453380
6.09749E+06 0.000453327
6.10372E+06 0.000452907
6.10996E+06 0.000452488
6.11622E+06 0.000452068
6.12248E+06 0.000451649
6.12875E+06 0.000451230
6.13503E+06 0.000450811
6.14133E+06 0.000450392
6.14763E+06 0.000449973
6.15394E+06 0.000449555
6.16026E+06 0.000449137
6.16765E+06 0.000448649
6.17610E+06 0.000448092
6.18458E+06 0.000447535
6.19307E+06 0.000446979
6.20159E+06 0.000446422
6.21011E+06 0.000445867
6.21866E+06 0.000445311
6.22722E+06 0.000444756
6.23581E+06 0.000444200
6.24441E+06 0.000443646
6.25302E+06 0.000443092
6.26166E+06 0.000442537
6.27031E+06 0.000441984
6.27898E+06 0.000441431
6.28550E+06 0.000441015
6.28985E+06 0.000440739
6.29420E+06 0.000440463
6.29856E+06 0.000440186
6.30292E+06 0.000439910
6.30729E+06 0.000439634
6.31166E+06 0.000439358
6.31604E+06 0.000439082
6.32042E+06 0.000438806
6.32480E+06 0.000438530
6.32919E+06 0.000438254
6.33359E+06 0.000437978
6.33799E+06 0.000437703
6.34239E+06 0.000437427
6.34680E+06 0.000437152
6.34683E+06 0.000437150
6.35121E+06 0.000436877
6.35563E+06 0.000436601
6.36005E+06 0.000436326
6.36448E+06 0.000436051
6.36891E+06 0.000435776
6.37335E+06 0.000435500
6.37779E+06 0.000435225
6.38224E+06 0.000434950
6.38669E+06 0.000434675
6.39114E+06 0.000434401
6.39560E+06 0.000434126
6.40007E+06 0.000433852
6.40453E+06 0.000433578
6.40901E+06 0.000433303
6.41349E+06 0.000433028
6.41797E+06 0.000432754
6.42246E+06 0.000432480
6.42695E+06 0.000432206
6.43145E+06 0.000431932
6.43595E+06 0.000431658
6.44046E+06 0.000431384
6.44497E+06 0.000431110
6.44948E+06 0.000430837
6.45401E+06 0.000430563
6.45853E+06 0.000430290
6.46306E+06 0.000430016
6.46987E+06 0.000429606
6.47896E+06 0.000429059
6.48807E+06 0.000428513
6.49720E+06 0.000427967
6.50000E+06 0.000427800
6.50634E+06 0.000427422
6.51551E+06 0.000426876
6.52470E+06 0.000426331
6.53390E+06 0.000425787
6.54313E+06 0.000425242
6.55238E+06 0.000424698
6.56164E+06 0.000424155
6.57093E+06 0.000423611
6.58023E+06 0.000423068
6.58955E+06 0.000422525
6.59890E+06 0.000421983
6.60826E+06 0.000421441
6.61765E+06 0.000420898
6.62705E+06 0.000420357
6.63648E+06 0.000419815
6.64592E+06 0.000419275
6.65302E+06 0.000418869
6.65776E+06 0.000418599
6.66250E+06 0.000418329
6.66725E+06 0.000418058
6.67200E+06 0.000417789
6.67676E+06 0.000417519
6.68152E+06 0.000417249
6.68629E+06 0.000416979
6.69106E+06 0.000416709
6.69584E+06 0.000416440
6.70063E+06 0.000416170
6.70541E+06 0.000415901
6.71021E+06 0.000415631
6.71501E+06 0.000415362
6.71981E+06 0.000415093
6.72462E+06 0.000414824
6.72944E+06 0.000414554
6.73425E+06 0.000414286
6.73908E+06 0.000414016
6.74391E+06 0.000413748
6.74995E+06 0.000413412
6.75722E+06 0.000413009
6.76450E+06 0.000412606
6.77178E+06 0.000412203
6.77909E+06 0.000411800
6.78640E+06 0.000411398
6.79372E+06 0.000410996
6.80106E+06 0.000410594
6.80840E+06 0.000410193
6.81576E+06 0.000409791
6.82314E+06 0.000409389
6.83052E+06 0.000408988
6.83792E+06 0.000408587
6.84532E+06 0.000408186
6.85274E+06 0.000407786
6.86018E+06 0.000407385
6.86762E+06 0.000406984
6.87508E+06 0.000406584
6.88254E+06 0.000406184
6.89003E+06 0.000405784
6.89752E+06 0.000405385
6.90502E+06 0.000404985
6.91254E+06 0.000404586
6.92007E+06 0.000404187
6.92761E+06 0.000403788
6.93517E+06 0.000403389
6.94274E+06 0.000402990
6.95032E+06 0.000402591
6.95791E+06 0.000402193
6.96551E+06 0.000401795
6.97313E+06 0.000401397
6.98076E+06 0.000400999
6.98840E+06 0.000400602
6.99606E+06 0.000400204
7.00000E+06 0.000400000
7.00372E+06 0.000400039
7.01140E+06 0.000400120
7.01910E+06 0.000400202
7.02680E+06 0.000400283
7.03452E+06 0.000400364
7.04225E+06 0.000400445
7.04999E+06 0.000400527
7.05775E+06 0.000400608
7.06682E+06 0.000400703
7.07720E+06 0.000400812
7.08760E+06 0.000400921
7.09803E+06 0.000401030
7.10848E+06 0.000401139
7.11896E+06 0.000401248
7.12946E+06 0.000401358
7.13998E+06 0.000401467
7.15052E+06 0.000401577
7.16109E+06 0.000401687
7.17168E+06 0.000401796
7.18230E+06 0.000401906
7.19293E+06 0.000402016
7.20360E+06 0.000402126
7.21428E+06 0.000402237
7.22499E+06 0.000402347
7.23573E+06 0.000402457
7.24514E+06 0.000402554
7.25322E+06 0.000402637
7.26132E+06 0.000402720
7.26943E+06 0.000402803
7.27755E+06 0.000402887
7.28569E+06 0.000402970
7.29384E+06 0.000403053
7.30200E+06 0.000403137
7.31018E+06 0.000403220
7.31837E+06 0.000403304
7.32658E+06 0.000403387
7.33480E+06 0.000403471
7.34303E+06 0.000403554
7.35128E+06 0.000403638
7.35954E+06 0.000403722
7.36781E+06 0.000403806
7.37610E+06 0.000403890
7.38441E+06 0.000403974
7.39272E+06 0.000404058
7.40105E+06 0.000404142
7.40940E+06 0.000404227
7.41776E+06 0.000404311
7.42613E+06 0.000404395
7.43452E+06 0.000404480
7.44292E+06 0.000404564
7.45134E+06 0.000404649
7.46259E+06 0.000404762
7.47668E+06 0.000404903
7.49081E+06 0.000405044
7.50000E+06 0.000405136
7.50498E+06 0.000405186
7.51919E+06 0.000405327
7.53345E+06 0.000405470
7.54774E+06 0.000405612
7.55520E+06 0.000405686
7.56208E+06 0.000405754
7.57645E+06 0.000405897
7.59087E+06 0.000406039
7.60533E+06 0.000406182
7.61983E+06 0.000406325
7.63437E+06 0.000406469
7.64895E+06 0.000406612
7.66358E+06 0.000406756
7.67825E+06 0.000406900
7.69296E+06 0.000407044
7.70771E+06 0.000407188
7.72250E+06 0.000407332
7.73734E+06 0.000407477
7.75222E+06 0.000407622
7.76715E+06 0.000407767
7.78211E+06 0.000407912
7.79712E+06 0.000408057
7.81218E+06 0.000408203
7.83484E+06 0.000408421
7.86522E+06 0.000408714
7.88390E+06 0.000408893
7.89577E+06 0.000409007
7.92650E+06 0.000409301
7.93450E+06 0.000409377
7.93452E+06 0.000409377
7.94380E+06 0.000409466
7.94382E+06 0.000409466
7.95741E+06 0.000409596
7.98850E+06 0.000409891
8.00000E+06 0.000410000
8.01250E+06 0.000409443
8.01978E+06 0.000409119
8.02240E+06 0.000409002
8.05124E+06 0.000407725
8.08288E+06 0.000406334
8.11472E+06 0.000404944
8.14674E+06 0.000403556
8.17895E+06 0.000402171
8.21136E+06 0.000400787
8.22810E+06 0.000400076
8.24396E+06 0.000399405
8.25490E+06 0.000398944
8.25495E+06 0.000398942
8.27090E+06 0.000398271
8.27676E+06 0.000398025
8.30975E+06 0.000396648
8.34294E+06 0.000395272
8.35620E+06 0.000394725
8.35625E+06 0.000394723
8.37633E+06 0.000393899
8.40993E+06 0.000392527
8.44372E+06 0.000391157
8.47620E+06 0.000389851
8.47773E+06 0.000389789
8.50000E+06 0.000388899
8.51193E+06 0.000388424
8.54635E+06 0.000387060
8.58098E+06 0.000385698
8.61582E+06 0.000384339
8.65087E+06 0.000382981
8.68614E+06 0.000381625
8.72162E+06 0.000380272
8.72980E+06 0.000379961
8.72981E+06 0.000379961
8.75733E+06 0.000378920
8.79325E+06 0.000377571
8.82940E+06 0.000376223
8.86577E+06 0.000374878
8.90237E+06 0.000373534
8.93919E+06 0.000372193
8.97625E+06 0.000370853
9.00000E+06 0.000370000
9.01354E+06 0.000369707
9.04610E+06 0.000369004
9.04611E+06 0.000369004
9.05106E+06 0.000368898
9.08882E+06 0.000368089
9.12681E+06 0.000367280
9.16505E+06 0.000366471
9.18560E+06 0.000366038
9.18565E+06 0.000366037
9.20353E+06 0.000365662
9.24225E+06 0.000364853
9.28122E+06 0.000364044
9.31690E+06 0.000363308
9.31693E+06 0.000363308
9.32043E+06 0.000363236
9.35001E+06 0.000362629
9.36980E+06 0.000362225
9.38966E+06 0.000361821
9.40959E+06 0.000361416
9.42957E+06 0.000361012
9.45960E+06 0.000360407
9.45967E+06 0.000360406
9.50000E+06 0.000359598
9.50003E+06 0.000359597
9.54065E+06 0.000358789
9.58153E+06 0.000357981
9.62268E+06 0.000357173
9.66409E+06 0.000356365
9.70577E+06 0.000355557
9.74773E+06 0.000354749
9.78996E+06 0.000353941
9.83246E+06 0.000353133
9.87525E+06 0.000352325
9.93995E+06 0.000351114
1.00000E+07 0.000350000
1.00272E+07 0.000350000
1.01157E+07 0.000350000
1.02053E+07 0.000350000
1.02961E+07 0.000350000
1.03881E+07 0.000350000
1.04814E+07 0.000350000
1.05760E+07 0.000350000
1.06718E+07 0.000350000
1.07690E+07 0.000350000
1.08675E+07 0.000350000
1.09670E+07 0.000350000
1.09671E+07 0.000350000
1.09674E+07 0.000350000
1.10000E+07 0.000350000
1.10020E+07 0.000350116
1.10022E+07 0.000350127
1.10686E+07 0.000353979
1.11713E+07 0.000359974
1.12754E+07 0.000366097
1.13810E+07 0.000372356
1.14881E+07 0.000378753
1.15967E+07 0.000385288
1.17069E+07 0.000391972
1.18187E+07 0.000398806
1.19321E+07 0.000405791
1.20000E+07 0.000410000
1.20471E+07 0.000411872
1.21638E+07 0.000416516
1.22823E+07 0.000421239
1.24024E+07 0.000426033
1.25244E+07 0.000430911
1.26482E+07 0.000435869
1.27738E+07 0.000440907
1.29014E+07 0.000446033
1.30000E+07 0.000450000
1.30308E+07 0.000454153
1.31623E+07 0.000472204
1.32957E+07 0.000491056
1.34313E+07 0.000510785
1.35689E+07 0.000531400
1.37086E+07 0.000552955
1.38506E+07 0.000575524
1.39630E+07 0.000593868
1.39947E+07 0.000599119
1.40000E+07 0.000600000
1.41412E+07 0.000606991
1.42899E+07 0.000614366
1.44411E+07 0.000621876
1.45000E+07 0.000624805
1.45947E+07 0.000629518
1.47507E+07 0.000637292
1.49094E+07 0.000645214
1.50705E+07 0.000653269
1.52344E+07 0.000661478
1.54009E+07 0.000669831
1.55703E+07 0.000678343
1.57424E+07 0.000687006
1.59175E+07 0.000695835
1.60000E+07 0.000700000
1.60955E+07 0.000721330
1.62765E+07 0.000763184
1.64606E+07 0.000807730
1.66479E+07 0.000855166
1.68385E+07 0.000905705
1.70324E+07 0.000959548
1.72296E+07 0.00101691
1.74304E+07 0.00107811
1.75000E+07 0.00110000
1.76347E+07 0.00117559
1.78426E+07 0.00130130
1.80543E+07 0.00144139
1.82698E+07 0.00159753
1.84892E+07 0.00177168
1.87127E+07 0.00196616
1.89403E+07 0.00218338
1.91720E+07 0.00242606
1.94081E+07 0.00269759
1.96487E+07 0.00300163
2.00000E+07 0.00349999
2.00000E+07 0.00000
2.09617E+07 0.00000
2.10000E+07 0.00000
2.19715E+07 0.00000
2.20000E+07 0.00000
2.24686E+07 0.00000
2.25004E+07 0.00000
2.29329E+07 0.00000
2.30000E+07 0.00000
2.33220E+07 0.00000
2.40000E+07 0.00000
2.50000E+07 0.00000
2.60000E+07 0.00000
2.61685E+07 0.00000
2.70000E+07 0.00000
2.78767E+07 0.00000
2.80000E+07 0.00000
2.90000E+07 0.00000
3.00000E+07 0.00000
3.00460E+07 0.00000
3.10000E+07 0.00000
3.19668E+07 0.00000
3.20000E+07 0.00000
3.23854E+07 0.00000
3.26814E+07 0.00000
3.30000E+07 0.00000
3.33622E+07 0.00000
3.40000E+07 0.00000
3.43813E+07 0.00000
3.50000E+07 0.00000
3.54547E+07 0.00000
3.60000E+07 0.00000
3.64305E+07 0.00000
3.70000E+07 0.00000
3.71444E+07 0.00000
3.73609E+07 0.00000
3.74826E+07 0.00000
3.80000E+07 0.00000
3.84034E+07 0.00000
3.90000E+07 0.00000
3.96699E+07 0.00000
3.97709E+07 0.00000
4.00000E+07 0.00000
4.02820E+07 0.00000
4.10000E+07 0.00000
4.20000E+07 0.00000
4.30000E+07 0.00000
4.40000E+07 0.00000
4.41844E+07 0.00000
4.45650E+07 0.00000
4.50000E+07 0.00000
4.57587E+07 0.00000
4.60000E+07 0.00000
4.61461E+07 0.00000
4.61986E+07 0.00000
4.68551E+07 0.00000
4.69627E+07 0.00000
4.70000E+07 0.00000
4.71334E+07 0.00000
4.80000E+07 0.00000
4.81790E+07 0.00000
4.83332E+07 0.00000
4.90000E+07 0.00000
5.00000E+07 0.00000
5.10000E+07 0.00000
5.12424E+07 0.00000
5.15286E+07 0.00000
5.19679E+07 0.00000
5.20000E+07 0.00000
5.30000E+07 0.00000
5.40000E+07 0.00000
5.49676E+07 0.00000
5.50000E+07 0.00000
5.60000E+07 0.00000
5.62113E+07 0.00000
5.70000E+07 0.00000
5.71078E+07 0.00000
5.76366E+07 0.00000
5.76379E+07 0.00000
5.80000E+07 0.00000
5.90000E+07 0.00000
5.95312E+07 0.00000
5.96948E+07 0.00000
6.00000E+07 0.00000
6.07239E+07 0.00000
6.07559E+07 0.00000
6.10000E+07 0.00000
6.20000E+07 0.00000
6.30000E+07 0.00000
6.40000E+07 0.00000
6.44253E+07 0.00000
6.50000E+07 0.00000
6.56810E+07 0.00000
6.60000E+07 0.00000
6.70000E+07 0.00000
6.80000E+07 0.00000
6.90000E+07 0.00000
7.00000E+07 0.00000
7.04397E+07 0.00000
7.10000E+07 0.00000
7.13197E+07 0.00000
7.15344E+07 0.00000
7.20000E+07 0.00000
7.30000E+07 0.00000
7.40000E+07 0.00000
7.44233E+07 0.00000
7.50000E+07 0.00000
7.53135E+07 0.00000
7.60000E+07 0.00000
7.70000E+07 0.00000
7.80000E+07 0.00000
7.90000E+07 0.00000
8.00000E+07 0.00000
8.10000E+07 0.00000
8.20000E+07 0.00000
8.30000E+07 0.00000
8.40000E+07 0.00000
8.50000E+07 0.00000
8.60000E+07 0.00000
8.70000E+07 0.00000
8.80000E+07 0.00000
8.90000E+07 0.00000
9.00000E+07 0.00000
9.10000E+07 0.00000
9.20000E+07 0.00000
9.30000E+07 0.00000
9.40000E+07 0.00000
9.50000E+07 0.00000
9.60000E+07 0.00000
9.70000E+07 0.00000
9.80000E+07 0.00000
9.90000E+07 0.00000
1.00000E+08 0.00000
1.02000E+08 0.00000
1.04000E+08 0.00000
1.06000E+08 0.00000
1.08000E+08 0.00000
1.10000E+08 0.00000
1.12000E+08 0.00000
1.14000E+08 0.00000
1.16000E+08 0.00000
1.18000E+08 0.00000
1.20000E+08 0.00000
1.22000E+08 0.00000
1.24000E+08 0.00000
1.26000E+08 0.00000
1.28000E+08 0.00000
1.30000E+08 0.00000
1.32000E+08 0.00000
1.34000E+08 0.00000
1.36000E+08 0.00000
1.38000E+08 0.00000
1.40000E+08 0.00000
1.42000E+08 0.00000
1.44000E+08 0.00000
1.46000E+08 0.00000
1.48000E+08 0.00000
1.50000E+08 0.00000