Si-28(n,g) ENDF/B-VII.1
Energy(eV) XS(b)
1.00000E-05 8.50717
1.25000E-05 7.60904
1.50000E-05 6.94607
2.00000E-05 6.01548
2.75000E-05 5.13002
3.50000E-05 4.54727
4.25000E-05 4.12658
5.00000E-05 3.80452
6.25000E-05 3.40287
7.50000E-05 3.10638
0.000100000 2.69020
0.000125000 2.40619
0.000150000 2.19654
0.000200000 1.90226
0.000275000 1.62225
0.000350000 1.43797
0.000425000 1.30494
0.000500000 1.20310
0.000625000 1.07608
0.000750000 0.982323
0.00100000 0.850717
0.00125000 0.760904
0.00150000 0.694607
0.00200000 0.601548
0.00275000 0.513002
0.00350000 0.454727
0.00425000 0.412658
0.00500000 0.380452
0.00625000 0.340287
0.00750000 0.310638
0.0100000 0.269020
0.0125000 0.240619
0.0150000 0.219654
0.0200000 0.190226
0.0253000 0.169132
0.0314750 0.151636
0.0376500 0.138645
0.0500000 0.120310
0.0625000 0.107608
0.0750000 0.0982324
0.100000 0.0850718
0.125000 0.0760905
0.150000 0.0694608
0.200000 0.0601548
0.275000 0.0513002
0.350000 0.0454728
0.500000 0.0380453
0.750000 0.0310639
1.00000 0.0269022
1.50000 0.0219656
2.00000 0.0190228
2.75000 0.0162228
3.50000 0.0143800
5.00000 0.0120313
7.50000 0.00982361
10.0000 0.00850760
15.0000 0.00694661
20.0000 0.00601609
27.5000 0.00513074
35.0000 0.00454809
50.0000 0.00380550
75.0000 0.00310758
100.000 0.00269159
150.000 0.00219824
200.000 0.00190422
275.000 0.00162455
350.000 0.00144057
500.000 0.00120621
750.000 0.000986148
1000.00 0.000855149
1500.00 0.000700073
2000.00 0.000607902
2750.00 0.000520532
3500.00 0.000463313
5000.00 0.000390941
7500.00 0.000323980
10000.0 0.000285059
15000.0 0.000241124
20000.0 0.000217732
25869.8 0.000203637
28804.6 0.000200686
30272.1 0.000200502
31005.8 0.000201909
31372.6 0.000207661
31556.1 0.000230500
31647.8 0.000321348
31693.6 0.000680561
31716.6 0.00208216
31728.0 0.00740495
31733.8 0.0265919
31736.6 0.0892740
31738.1 0.257479
31738.8 0.592699
31739.1 1.03750
31739.5 2.00562
31740.0 4.01245
31740.5 2.00571
31741.1 0.749235
31741.6 0.359225
31742.7 0.134411
31745.0 0.0418334
31749.4 0.0118324
31758.3 0.00327686
31776.2 0.000992368
31811.8 0.000401489
31883.2 0.000251132
32025.8 0.000213209
32311.1 0.000203788
32881.7 0.000201779
34022.9 0.000202404
36305.4 0.000206707
40870.3 0.000228243
45435.1 0.000292548
47717.6 0.000375052
48858.8 0.000450536
50000.0 0.000575462
51337.5 0.000862846
52006.3 0.00113518
52675.0 0.00160445
53343.8 0.00251810
53510.9 0.00288299
53678.1 0.00333932
53761.7 0.00361156
53845.3 0.00392007
53928.9 0.00427156
54012.5 0.00467429
54096.1 0.00513866
54179.7 0.00567758
54263.3 0.00630774
54346.9 0.00705035
54430.5 0.00793338
54514.1 0.00899330
54597.7 0.0102792
54681.3 0.0118576
54764.9 0.0138200
54848.4 0.0162937
54932.0 0.0194595
55015.6 0.0235743
55099.2 0.0290081
55182.8 0.0362808
55266.4 0.0460908
55350.0 0.0592357
55513.5 0.0949501
55677.0 0.120849
55758.8 0.115076
55840.5 0.0986487
56004.0 0.0619998
56187.2 0.0360428
56370.5 0.0224674
56553.7 0.0150680
56736.9 0.0107259
56920.1 0.00799942
57103.4 0.00618947
57469.8 0.00402559
57836.3 0.00283796
58202.7 0.00211969
58935.6 0.00133444
59668.5 0.000938703
60401.4 0.000712510
61867.2 0.000478530
63333.0 0.000368659
64798.8 0.000315031
66264.6 0.000324632
66631.1 0.000366701
66997.5 0.000500534
67364.0 0.00124712
67547.2 0.00420711
67638.8 0.0156761
67661.7 0.0271824
67684.6 0.0586432
67696.1 0.100275
67707.5 0.209268
67713.3 0.345816
67719.0 0.673902
67721.8 1.04504
67724.7 1.81457
67726.1 2.54523
67727.6 3.78076
67729.0 6.02719
67730.4 10.2935
67731.7 16.4752
67733.0 20.6135
67734.3 16.5037
67735.6 10.3158
67737.1 5.89241
67738.6 3.63263
67740.1 2.41749
67741.6 1.71362
67744.6 0.978400
67747.6 0.628634
67753.5 0.320403
67759.5 0.193490
67771.5 0.0924357
67783.5 0.0539841
67807.4 0.0249973
67831.3 0.0144208
67927.1 0.00387977
68118.6 0.00115708
68501.6 0.000461207
68884.6 0.000328098
69267.5 0.000279186
70033.5 0.000241380
70416.5 0.000236116
70608.0 0.000250115
70703.7 0.000319178
70751.6 0.000598005
70775.6 0.00168904
70787.5 0.00584259
70793.5 0.0208465
70796.5 0.0698970
70798.0 0.203906
70798.7 0.473548
70799.5 1.65398
70800.0 3.30900
70800.5 1.65401
70801.5 0.353100
70802.5 0.137982
70804.4 0.0445128
70808.3 0.0128450
70816.1 0.00359106
70831.8 0.00109290
70863.0 0.000443448
70925.5 0.000277071
71050.4 0.000233512
71300.4 0.000219834
71800.2 0.000211993
72799.9 0.000203804
74799.2 0.000194497
78798.0 0.000186488
82796.7 0.000185877
84796.0 0.000191711
85795.7 0.000213959
86295.6 0.000301202
86545.5 0.000646834
86670.4 0.00200868
86732.9 0.00729492
86764.2 0.0272016
86779.8 0.0977711
86787.6 0.320124
86791.5 0.883676
86793.4 1.90384
86794.4 3.13790
86795.4 5.61351
86796.2 8.96684
86797.0 11.2338
86797.8 8.97651
86798.6 5.62110
86799.4 3.45813
86800.2 2.24389
86801.8 1.12372
86805.1 0.432936
86811.5 0.137356
86824.4 0.0389937
86850.2 0.0105148
86901.8 0.00285035
87004.9 0.000862694
87211.2 0.000356612
87623.7 0.000229130
88448.8 0.000197710
90099.0 0.000191352
93399.3 0.000193778
100000 0.000206089
116043 0.000262894
132085 0.000385302
136096 0.000435410
140106 0.000498283
142112 0.000535760
143114 0.000556282
144117 0.000578112
145120 0.000601355
146122 0.000626115
147125 0.000652516
148128 0.000680679
149130 0.000710747
150133 0.000742862
152138 0.000813870
154144 0.000895073
156149 0.000987964
158154 0.00109409
160159 0.00121491
164170 0.00150416
168533 0.00188242
172895 0.00226583
177258 0.00251086
181620 0.00247164
185983 0.00216321
190345 0.00174621
199070 0.00104858
205297 0.000738050
211523 0.000537693
217750 0.000406140
223976 0.000317041
236429 0.000209722
248882 0.000151119
261335 0.000116103
273788 9.37277E-05
286242 7.89399E-05
292468 7.46235E-05
295581 7.76933E-05
297138 9.81822E-05
297916 0.000182424
298305 0.000514717
298500 0.00180174
298597 0.00662634
298622 0.0112988
298646 0.0235294
298658 0.0389207
298670 0.0756505
298676 0.117362
298682 0.204420
298686 0.289182
298689 0.428469
298692 0.680735
298695 1.17098
298697 1.87864
298700 2.34193
298703 1.88030
298705 1.17231
298708 0.741506
298711 0.496327
298716 0.254328
298721 0.151573
298726 0.0998941
298736 0.0524256
298746 0.0322791
298766 0.0157080
298787 0.00926866
298868 0.00252837
299031 0.000706658
299356 0.000233879
300006 0.000118469
300657 0.000127338
300982 0.000248765
301144 0.000742947
301226 0.00265027
301266 0.00973075
301287 0.0339250
301297 0.105785
301302 0.269440
301307 1.17518
301309 1.86286
301310 2.15316
301313 0.947530
301320 0.173753
301326 0.0662829
301339 0.0210176
301365 0.00599732
301417 0.00165142
301521 0.000481155
301729 0.000176449
302145 9.72472E-05
302978 7.51722E-05
304642 6.73833E-05
307972 6.29880E-05
314630 5.85847E-05
327948 5.26662E-05
341265 4.86681E-05
347924 4.83318E-05
351253 5.32437E-05
352918 7.56546E-05
353750 0.000165821
354166 0.000519790
354374 0.00187662
354478 0.00684806
354504 0.0115585
354530 0.0235477
354543 0.0380237
354556 0.0711235
354563 0.106185
354569 0.173570
354576 0.323363
354579 0.472678
354582 0.714886
354586 1.13981
354590 1.43070
354594 1.14103
354598 0.715856
354601 0.503225
354603 0.361510
354609 0.207045
354614 0.131574
354620 0.0902783
354631 0.0496390
354642 0.0312223
354664 0.0155769
354686 0.00930367
354730 0.00440829
354774 0.00257287
354950 0.000705483
355302 0.000213817
356007 8.74728E-05
357415 5.51703E-05
360233 4.65328E-05
365868 4.34766E-05
377139 4.12620E-05
388409 3.98614E-05
394044 3.93566E-05
396862 3.92923E-05
398271 3.98865E-05
398975 4.26564E-05
399327 5.39013E-05
399503 9.87631E-05
399591 0.000276290
399635 0.000971181
399657 0.00363279
399668 0.0133977
399674 0.0463249
399677 0.144965
399679 1.68258
399680 3.45709
399681 1.77290
399683 0.226456
399685 0.0801088
399689 0.0236307
399697 0.00652379
399713 0.00173964
399746 0.000474385
399810 0.000149038
399940 6.65388E-05
400199 4.57508E-05
400718 4.05023E-05
401754 3.91241E-05
403828 3.86597E-05
407975 3.83350E-05
416270 3.79568E-05
432859 3.77628E-05
466036 4.01438E-05
499214 5.17327E-05
507509 5.94270E-05
515803 7.41852E-05
519950 8.89589E-05
524098 0.000121261
526171 0.000159185
527208 0.000194094
528245 0.000254111
529282 0.000373361
529800 0.000484292
530318 0.000672699
530837 0.00103286
531096 0.00135100
531355 0.00185943
531614 0.00274326
531874 0.00447126
532003 0.00601435
532133 0.00847373
532262 0.0126355
532392 0.0200487
532660 0.0488097
532727 0.0505895
532794 0.0460726
532928 0.0298165
533034 0.0198385
533140 0.0135507
533247 0.00964759
533353 0.00715352
533565 0.00434027
533777 0.00290618
533990 0.00208778
534202 0.00158015
534626 0.00101260
535051 0.000720785
535475 0.000552216
536325 0.000376705
538023 0.000249927
539721 0.000212063
543118 0.000208712
546514 0.000246948
549911 0.000323982
553307 0.000465591
556704 0.000739633
558402 0.000970308
560100 0.00130083
565580 0.00264835
568320 0.00219321
571060 0.00140373
573061 0.000998584
575062 0.000735352
577062 0.000568178
579063 0.000465716
581064 0.000415862
583065 0.000440505
585065 0.000777687
586066 0.00200570
586316 0.00311103
586566 0.00577307
586691 0.00878882
586816 0.0151180
586879 0.0212101
586941 0.0316942
587004 0.0513365
587035 0.0676165
587066 0.0906751
587170 0.193327
587196 0.187747
587222 0.163185
587274 0.103430
587317 0.0688199
587360 0.0473520
587403 0.0340170
587446 0.0254311
587532 0.0156547
587618 0.0106140
587790 0.00591522
587962 0.00390923
588650 0.00196268
588994 0.00213257
589166 0.00246107
589338 0.00305877
589510 0.00413576
589682 0.00618294
589854 0.0104307
589940 0.0141958
590026 0.0196658
590092 0.0249760
590158 0.0302618
590224 0.0333868
590290 0.0324683
590422 0.0225808
590554 0.0136735
590647 0.00978058
590740 0.00723424
590926 0.00436294
591111 0.00291941
591297 0.00210742
591483 0.00160828
591669 0.00128032
592040 0.000889308
592412 0.000672716
592783 0.000539393
593526 0.000388644
594269 0.000308352
595013 0.000259815
596499 0.000206498
597985 0.000183021
599471 0.000186721
600957 0.000301454
601700 0.000792101
602072 0.00261456
602165 0.00434919
602257 0.00878311
602304 0.0141720
602350 0.0265513
602374 0.0397575
602397 0.0653557
602420 0.123053
602432 0.180253
602443 0.274511
602457 0.439458
602470 0.548577
602484 0.438905
602497 0.275110
602511 0.168001
602524 0.108911
602551 0.0543235
602579 0.0318903
602606 0.0208764
602660 0.0108923
602715 0.00668591
602824 0.00328067
602933 0.00196997
603368 0.000605533
604240 0.000234610
605983 0.000131826
607726 0.000107667
609468 9.62052E-05
616440 7.62347E-05
630382 6.21907E-05
658268 5.73261E-05
686153 6.46628E-05
700096 7.26010E-05
707067 7.80993E-05
710553 8.16215E-05
712295 8.47795E-05
713167 9.14493E-05
713602 0.000114908
713820 0.000206262
713929 0.000563250
713984 0.00193526
714011 0.00697704
714025 0.0240441
714031 0.0734458
714038 0.826614
714040 1.71508
714042 0.885575
714049 0.0723000
714056 0.0232387
714070 0.00662770
714098 0.00183054
714154 0.000534950
714267 0.000199202
714492 0.000113942
714943 9.28605E-05
715843 8.84391E-05
717644 8.91632E-05
721247 9.33624E-05
728452 0.000104127
742862 0.000136162
757273 0.000194023
764478 0.000243280
768080 0.000282818
769882 0.000333244
770782 0.000467347
771233 0.000935483
771345 0.00138333
771458 0.00254664
771514 0.00399006
771570 0.00742454
771599 0.0112501
771627 0.0190345
771655 0.0382556
771669 0.0594711
771683 0.0979126
771697 0.157066
771710 0.197303
771724 0.158612
771737 0.0994861
771750 0.0632982
771762 0.0422071
771787 0.0218893
771813 0.0132076
771838 0.00882496
771888 0.00478731
771938 0.00305777
772038 0.00164664
772139 0.00109930
772540 0.000530555
773344 0.000385651
774950 0.000367601
778163 0.000409687
784589 0.000554431
791014 0.000791994
797440 0.00118021
804965 0.00185103
812490 0.00226859
820015 0.00180971
827540 0.00116014
836285 0.000712653
840658 0.000623647
841751 0.000641867
842844 0.000737750
843390 0.000880520
843937 0.00125287
844210 0.00169651
844347 0.00207976
844484 0.00267429
844620 0.00366175
844757 0.00544681
844893 0.00903518
844962 0.0121949
845030 0.0168844
845130 0.0267504
845230 0.0333719
845330 0.0268246
845430 0.0169416
845535 0.0103684
845640 0.00679223
845745 0.00477298
845850 0.00355854
846060 0.00225674
846270 0.00161988
846479 0.00126338
846689 0.00104416
847109 0.000798961
847949 0.000594192
848788 0.000508357
852146 0.000390040
858862 0.000310845
865577 0.000272470
868935 0.000266281
870614 0.000287322
871454 0.000386978
871874 0.000774629
872083 0.00218941
872188 0.00687915
872241 0.0199493
872267 0.0470393
872280 0.0849437
872293 0.177725
872302 0.284337
872310 0.359416
872318 0.289761
872327 0.181962
872336 0.109408
872344 0.0698481
872362 0.0343706
872397 0.0131544
872467 0.00429119
872607 0.00138414
872887 0.000548458
873448 0.000323560
874569 0.000263603
876811 0.000245746
881296 0.000239435
890265 0.000248898
899234 0.000302183
901476 0.000340090
903719 0.000416962
904840 0.000491071
905961 0.000621254
907082 0.000873577
907643 0.00108640
908203 0.00138478
909122 0.00198967
909581 0.00216782
910040 0.00211740
910959 0.00155864
911877 0.00105319
912630 0.000805270
913382 0.000655278
914888 0.000502472
917899 0.000404964
923920 0.000389183
943075 0.000537036
962230 0.000643789
981115 0.000518134
1.00000E+06 0.000336976
1.00050E+06 0.000333012
1.00158E+06 0.000324645
1.00266E+06 0.000316539
1.00482E+06 0.000301125
1.00913E+06 0.000273808
1.01345E+06 0.000255104
1.01560E+06 0.000268100
1.01668E+06 0.000355469
1.01722E+06 0.000692488
1.01736E+06 0.00101472
1.01749E+06 0.00183875
1.01756E+06 0.00284922
1.01763E+06 0.00514039
1.01766E+06 0.00762259
1.01769E+06 0.0122699
1.01773E+06 0.0230469
1.01775E+06 0.0338418
1.01776E+06 0.0505437
1.01780E+06 0.105567
1.01782E+06 0.0857065
1.01784E+06 0.0542172
1.01786E+06 0.0291972
1.01789E+06 0.0176549
1.01794E+06 0.00821644
1.01798E+06 0.00472343
1.01803E+06 0.00309120
1.01813E+06 0.00167309
1.01822E+06 0.00109393
1.01861E+06 0.000462139
1.01938E+06 0.000281509
1.02091E+06 0.000228046
1.02399E+06 0.000204406
1.03014E+06 0.000185119
1.03628E+06 0.000196805
1.03782E+06 0.000221819
1.03936E+06 0.000292008
1.04013E+06 0.000379414
1.04051E+06 0.000456916
1.04089E+06 0.000580405
1.04128E+06 0.000792864
1.04166E+06 0.00119856
1.04185E+06 0.00154984
1.04205E+06 0.00208919
1.04224E+06 0.00294871
1.04243E+06 0.00433508
1.04267E+06 0.00690010
1.04290E+06 0.00873007
1.04314E+06 0.00709415
1.04337E+06 0.00448607
1.04353E+06 0.00321438
1.04370E+06 0.00237004
1.04402E+06 0.00142092
1.04435E+06 0.000952589
1.04468E+06 0.000696058
1.04500E+06 0.000541323
1.04533E+06 0.000441862
1.04598E+06 0.000325734
1.04729E+06 0.000225450
1.04859E+06 0.000183680
1.05121E+06 0.000148163
1.05382E+06 0.000132110
1.06427E+06 0.000105214
1.07471E+06 9.24854E-05
1.07994E+06 9.18912E-05
1.08255E+06 0.000107553
1.08320E+06 0.000125292
1.08386E+06 0.000175864
1.08418E+06 0.000245351
1.08451E+06 0.000435390
1.08467E+06 0.000689258
1.08484E+06 0.00135224
1.08500E+06 0.00418523
1.08508E+06 0.0112213
1.08512E+06 0.0234464
1.08516E+06 0.0616396
1.08518E+06 0.0971790
1.08520E+06 0.115721
1.08522E+06 0.0886483
1.08524E+06 0.0549387
1.08530E+06 0.0142166
1.08536E+06 0.00606739
1.08548E+06 0.00209765
1.08573E+06 0.000671359
1.08598E+06 0.000357649
1.08622E+06 0.000240918
1.08671E+06 0.000153518
1.08720E+06 0.000121705
1.08819E+06 9.80816E-05
1.08917E+06 8.92636E-05
1.09310E+06 7.88795E-05
1.10095E+06 7.30242E-05
1.11667E+06 6.88425E-05
1.13238E+06 7.27076E-05
1.14024E+06 8.12734E-05
1.14417E+06 9.00151E-05
1.14613E+06 9.74547E-05
1.14712E+06 0.000105859
1.14761E+06 0.000125708
1.14785E+06 0.000196698
1.14798E+06 0.000471145
1.14804E+06 0.00150300
1.14807E+06 0.00534428
1.14808E+06 0.0175211
1.14809E+06 0.0547532
1.14810E+06 0.656897
1.14810E+06 1.33655
1.14810E+06 0.682072
1.14811E+06 0.0679854
1.14812E+06 0.0252767
1.14813E+06 0.00740970
1.14815E+06 0.00207423
1.14821E+06 0.000626294
1.14831E+06 0.000239834
1.14851E+06 0.000140895
1.14892E+06 0.000117819
1.14974E+06 0.000116807
1.15137E+06 0.000129233
1.15465E+06 0.000182681
1.15628E+06 0.000240678
1.15792E+06 0.000357881
1.15874E+06 0.000467007
1.15955E+06 0.000648767
1.16037E+06 0.000973578
1.16119E+06 0.00157906
1.16157E+06 0.00199589
1.16195E+06 0.00247426
1.16232E+06 0.00290574
1.16270E+06 0.00310028
1.16346E+06 0.00253177
1.16421E+06 0.00162880
1.16508E+06 0.000981376
1.16595E+06 0.000649718
1.16682E+06 0.000472124
1.16768E+06 0.000370338
1.16942E+06 0.000268981
1.17116E+06 0.000226815
1.17463E+06 0.000207437
1.17811E+06 0.000228070
1.18158E+06 0.000280353
1.18505E+06 0.000377070
1.18853E+06 0.000552271
1.19200E+06 0.000869000
1.19545E+06 0.00137504
1.19890E+06 0.00216489
1.19950E+06 0.00239986
1.20035E+06 0.00274740
1.20120E+06 0.00286279
1.20235E+06 0.00237096
1.20350E+06 0.00171655
1.20525E+06 0.00109667
1.20700E+06 0.000773005
1.20954E+06 0.000520469
1.21209E+06 0.000381265
1.21463E+06 0.000296401
1.21718E+06 0.000241556
1.22226E+06 0.000180018
1.22735E+06 0.000153328
1.23244E+06 0.000148606
1.23753E+06 0.000165878
1.24261E+06 0.000217477
1.24770E+06 0.000332283
1.24988E+06 0.000404657
1.25205E+06 0.000477145
1.25423E+06 0.000521592
1.25640E+06 0.000514970
1.26019E+06 0.000450794
1.26114E+06 0.000467600
1.26209E+06 0.000556944
1.26256E+06 0.000678200
1.26303E+06 0.000946644
1.26327E+06 0.00120802
1.26351E+06 0.00165505
1.26374E+06 0.00247540
1.26398E+06 0.00404401
1.26440E+06 0.00808511
1.26461E+06 0.00672726
1.26482E+06 0.00433488
1.26496E+06 0.00318290
1.26510E+06 0.00239358
1.26533E+06 0.00161524
1.26555E+06 0.00117443
1.26577E+06 0.000905401
1.26600E+06 0.000730606
1.26645E+06 0.000524894
1.26689E+06 0.000412750
1.26779E+06 0.000297406
1.26869E+06 0.000239283
1.27227E+06 0.000146510
1.27586E+06 0.000109368
1.27945E+06 8.80192E-05
1.28662E+06 6.43114E-05
1.29379E+06 5.17234E-05
1.30814E+06 3.91239E-05
1.32248E+06 3.32524E-05
1.35118E+06 2.96250E-05
1.36552E+06 3.19172E-05
1.37269E+06 3.69553E-05
1.37628E+06 4.82997E-05
1.37807E+06 8.51318E-05
1.37897E+06 0.000221193
1.37942E+06 0.000715120
1.37964E+06 0.00236234
1.37975E+06 0.00700425
1.37981E+06 0.0168504
1.37984E+06 0.0310235
1.37987E+06 0.0673040
1.37990E+06 0.138563
1.37992E+06 0.113430
1.37993E+06 0.0715630
1.37996E+06 0.0352517
1.37998E+06 0.0197960
1.38003E+06 0.00846464
1.38014E+06 0.00287787
1.38034E+06 0.000873506
1.38074E+06 0.000266250
1.38154E+06 0.000100506
1.38315E+06 5.91744E-05
1.38638E+06 5.45919E-05
1.38960E+06 6.28610E-05
1.39282E+06 7.94924E-05
1.39604E+06 0.000111267
1.39926E+06 0.000179907
1.40087E+06 0.000247389
1.40248E+06 0.000365661
1.40409E+06 0.000592345
1.40490E+06 0.000782827
1.40570E+06 0.00105469
1.40700E+06 0.00167236
1.40830E+06 0.00207918
1.40960E+06 0.00166419
1.41090E+06 0.00104811
1.41195E+06 0.000712740
1.41300E+06 0.000502825
1.41405E+06 0.000370342
1.41510E+06 0.000283730
1.41721E+06 0.000183356
1.41931E+06 0.000130622
1.42141E+06 9.98611E-05
1.42351E+06 8.05079E-05
1.42771E+06 5.86146E-05
1.43192E+06 4.73647E-05
1.43612E+06 4.10443E-05
1.44453E+06 3.54231E-05
1.45293E+06 3.52250E-05
1.46134E+06 4.17876E-05
1.46554E+06 5.16093E-05
1.46764E+06 6.08209E-05
1.46974E+06 7.61682E-05
1.47185E+06 0.000104296
1.47395E+06 0.000163627
1.47500E+06 0.000220934
1.47605E+06 0.000319765
1.47710E+06 0.000505188
1.47815E+06 0.000875134
1.47990E+06 0.00180139
1.48078E+06 0.00150320
1.48165E+06 0.000965582
1.48202E+06 0.000806664
1.48221E+06 0.000806518
1.48230E+06 0.00105189
1.48235E+06 0.00204874
1.48240E+06 0.0798243
1.48240E+06 0.156407
1.48241E+06 0.0785254
1.48243E+06 0.00371458
1.48246E+06 0.00153135
1.48252E+06 0.000849122
1.48264E+06 0.000630449
1.48287E+06 0.000521610
1.48334E+06 0.000412384
1.48427E+06 0.000282905
1.48520E+06 0.000208115
1.48614E+06 0.000161448
1.48800E+06 0.000109376
1.48987E+06 8.29542E-05
1.49360E+06 5.89476E-05
1.49733E+06 4.97007E-05
1.50479E+06 4.77006E-05
1.50852E+06 5.70640E-05
1.51039E+06 8.49314E-05
1.51132E+06 0.000180529
1.51179E+06 0.000509972
1.51202E+06 0.00152704
1.51214E+06 0.00407612
1.51220E+06 0.00859488
1.51222E+06 0.0140126
1.51225E+06 0.0256523
1.51230E+06 0.0593512
1.51232E+06 0.0536969
1.51235E+06 0.0344484
1.51238E+06 0.0181688
1.51241E+06 0.0106508
1.51246E+06 0.00474197
1.51258E+06 0.00168480
1.51281E+06 0.000539253
1.51328E+06 0.000190160
1.51421E+06 9.63888E-05
1.51607E+06 8.02347E-05
1.51793E+06 9.00935E-05
1.51979E+06 0.000112957
1.52166E+06 0.000157594
1.52259E+06 0.000195932
1.52352E+06 0.000254817
1.52445E+06 0.000351023
1.52538E+06 0.000521108
1.52631E+06 0.000851280
1.52678E+06 0.00113182
1.52724E+06 0.00153607
1.52797E+06 0.00243260
1.52870E+06 0.00302773
1.52943E+06 0.00243301
1.53016E+06 0.00153804
1.53094E+06 0.000935332
1.53171E+06 0.000609515
1.53249E+06 0.000426494
1.53327E+06 0.000317009
1.53482E+06 0.000200497
1.53637E+06 0.000144274
1.53793E+06 0.000113489
1.53948E+06 9.51787E-05
1.54258E+06 7.63077E-05
1.54879E+06 6.61314E-05
1.55501E+06 7.06370E-05
1.56122E+06 8.63023E-05
1.56743E+06 0.000121282
1.57053E+06 0.000155465
1.57364E+06 0.000220433
1.57519E+06 0.000283228
1.57675E+06 0.000407353
1.57752E+06 0.000530204
1.57830E+06 0.000763380
1.57869E+06 0.000971250
1.57907E+06 0.00130629
1.57946E+06 0.00188435
1.57985E+06 0.00292863
1.58060E+06 0.00594261
1.58098E+06 0.00509681
1.58135E+06 0.00337626
1.58172E+06 0.00224341
1.58208E+06 0.00160681
1.58245E+06 0.00124787
1.58281E+06 0.00103860
1.58354E+06 0.000837132
1.58428E+06 0.000771383
1.58574E+06 0.000806783
1.58720E+06 0.000957955
1.59000E+06 0.00143066
1.59280E+06 0.00181128
1.59519E+06 0.00226063
1.59620E+06 0.00274491
1.59720E+06 0.00288348
1.59840E+06 0.00208121
1.59921E+06 0.00153329
1.60024E+06 0.00107865
1.60126E+06 0.000805602
1.60331E+06 0.000515396
1.60536E+06 0.000370246
1.60741E+06 0.000286204
1.61151E+06 0.000197909
1.61561E+06 0.000157533
1.61970E+06 0.000139999
1.62380E+06 0.000136926
1.62790E+06 0.000146496
1.63200E+06 0.000172234
1.63580E+06 0.000225293
1.63770E+06 0.000279559
1.63960E+06 0.000389993
1.64030E+06 0.000463346
1.64116E+06 0.000604201
1.64203E+06 0.000840224
1.64289E+06 0.00120642
1.64375E+06 0.00154461
1.64418E+06 0.00156090
1.64461E+06 0.00144648
1.64548E+06 0.00106243
1.64634E+06 0.000758523
1.64720E+06 0.000579090
1.64818E+06 0.000467506
1.64915E+06 0.000408368
1.65110E+06 0.000370391
1.65278E+06 0.000402153
1.65446E+06 0.000544020
1.65530E+06 0.000726379
1.65614E+06 0.00112870
1.65698E+06 0.00221615
1.65740E+06 0.00350420
1.65782E+06 0.00593863
1.65821E+06 0.00906715
1.65860E+06 0.00958460
1.65938E+06 0.00403504
1.66001E+06 0.00200962
1.66064E+06 0.00119646
1.66127E+06 0.000817223
1.66190E+06 0.000620574
1.66265E+06 0.000508992
1.66340E+06 0.000511260
1.66414E+06 0.000875414
1.66452E+06 0.00208737
1.66471E+06 0.00482897
1.66480E+06 0.00895412
1.66485E+06 0.0131188
1.66489E+06 0.0197841
1.66495E+06 0.0311854
1.66500E+06 0.0367417
1.66511E+06 0.0173294
1.66519E+06 0.00863565
1.66528E+06 0.00496064
1.66544E+06 0.00225656
1.66561E+06 0.00132806
1.66577E+06 0.000907351
1.66611E+06 0.000545971
1.66644E+06 0.000396713
1.66710E+06 0.000271445
1.66776E+06 0.000217316
1.66909E+06 0.000166157
1.67042E+06 0.000139704
1.67307E+06 0.000109913
1.67572E+06 9.22969E-05
1.68103E+06 7.12990E-05
1.68633E+06 5.89692E-05
1.69694E+06 4.53657E-05
1.70755E+06 3.85760E-05
1.72878E+06 3.36127E-05
1.75000E+06 3.49239E-05
1.75000E+06 0.000549999
1.75075E+06 0.000549310
1.75234E+06 0.000547847
1.75393E+06 0.000546384
1.75553E+06 0.000544912
1.75713E+06 0.000543440
1.75873E+06 0.000541968
1.76034E+06 0.000540487
1.76194E+06 0.000539015
1.76355E+06 0.000537534
1.76516E+06 0.000536053
1.76677E+06 0.000534572
1.76839E+06 0.000533081
1.77001E+06 0.000531591
1.77162E+06 0.000530110
1.77325E+06 0.000528610
1.77487E+06 0.000527120
1.77650E+06 0.000525620
1.77812E+06 0.000524130
1.77975E+06 0.000522630
1.78139E+06 0.000521121
1.78237E+06 0.000520220
1.78269E+06 0.000519925
1.78302E+06 0.000519622
1.78335E+06 0.000519318
1.78368E+06 0.000519014
1.78400E+06 0.000518720
1.78433E+06 0.000518416
1.78466E+06 0.000518113
1.78499E+06 0.000517809
1.78531E+06 0.000517515
1.78564E+06 0.000517211
1.78597E+06 0.000516908
1.78630E+06 0.000516604
1.78663E+06 0.000516300
1.78695E+06 0.000516006
1.78728E+06 0.000515702
1.78761E+06 0.000515399
1.78794E+06 0.000515095
1.78860E+06 0.000514488
1.78958E+06 0.000513586
1.79057E+06 0.000512676
1.79156E+06 0.000511765
1.79255E+06 0.000510854
1.79354E+06 0.000509943
1.79453E+06 0.000509032
1.79552E+06 0.000508122
1.79651E+06 0.000507211
1.79751E+06 0.000506291
1.79850E+06 0.000505380
1.79950E+06 0.000504460
1.80049E+06 0.000503549
1.80149E+06 0.000502629
1.80215E+06 0.000502022
1.80249E+06 0.000501709
1.80282E+06 0.000501406
1.80315E+06 0.000501102
1.80348E+06 0.000500798
1.80382E+06 0.000500486
1.80415E+06 0.000500182
1.80448E+06 0.000499878
1.80482E+06 0.000499566
1.80515E+06 0.000499262
1.80548E+06 0.000498958
1.80582E+06 0.000498646
1.80615E+06 0.000498342
1.80648E+06 0.000498038
1.80682E+06 0.000497726
1.80715E+06 0.000497422
1.80748E+06 0.000497118
1.80782E+06 0.000496806
1.80815E+06 0.000496502
1.80849E+06 0.000496189
1.80932E+06 0.000495426
1.81066E+06 0.000494193
1.81200E+06 0.000492960
1.81334E+06 0.000491727
1.81469E+06 0.000490485
1.81603E+06 0.000489252
1.81738E+06 0.000488010
1.81872E+06 0.000486778
1.82007E+06 0.000485536
1.82142E+06 0.000484294
1.82278E+06 0.000483042
1.82413E+06 0.000481800
1.82548E+06 0.000480558
1.82701E+06 0.000479151
1.82871E+06 0.000477587
1.83041E+06 0.000476023
1.83211E+06 0.000474459
1.83382E+06 0.000472886
1.83518E+06 0.000471634
1.83621E+06 0.000470687
1.83724E+06 0.000469739
1.83826E+06 0.000468801
1.83929E+06 0.000467853
1.84032E+06 0.000466906
1.84135E+06 0.000465958
1.84238E+06 0.000465010
1.84310E+06 0.000464348
1.84314E+06 0.000464312
1.84340E+06 0.000464072
1.84341E+06 0.000464063
1.84390E+06 0.000463612
1.84444E+06 0.000463115
1.84548E+06 0.000462158
1.84651E+06 0.000461211
1.84755E+06 0.000460254
1.84858E+06 0.000459306
1.84962E+06 0.000458350
1.85066E+06 0.000457393
1.85170E+06 0.000456436
1.85274E+06 0.000455479
1.85378E+06 0.000454522
1.85482E+06 0.000453566
1.85586E+06 0.000452609
1.85690E+06 0.000451652
1.85770E+06 0.000450916
1.85795E+06 0.000450686
1.85899E+06 0.000449729
1.86004E+06 0.000448763
1.86108E+06 0.000447806
1.86213E+06 0.000446840
1.86290E+06 0.000446132
1.86353E+06 0.000445552
1.86528E+06 0.000443942
1.86703E+06 0.000442332
1.86730E+06 0.000442084
1.86878E+06 0.000440722
1.87054E+06 0.000439103
1.87230E+06 0.000437484
1.87406E+06 0.000435865
1.87582E+06 0.000434246
1.87759E+06 0.000432617
1.87936E+06 0.000430989
1.88113E+06 0.000429360
1.88291E+06 0.000427723
1.88468E+06 0.000426094
1.88646E+06 0.000424457
1.88824E+06 0.000422819
1.89003E+06 0.000421172
1.89182E+06 0.000419526
1.89361E+06 0.000417879
1.89540E+06 0.000416232
1.89719E+06 0.000414585
1.89760E+06 0.000414208
1.89899E+06 0.000412929
1.90079E+06 0.000411273
1.90223E+06 0.000409948
1.90280E+06 0.000409424
1.90331E+06 0.000408955
1.90440E+06 0.000407952
1.90548E+06 0.000406958
1.90656E+06 0.000405965
1.90765E+06 0.000404962
1.90874E+06 0.000403959
1.90983E+06 0.000402956
1.91091E+06 0.000401963
1.91200E+06 0.000400960
1.91309E+06 0.000399957
1.91437E+06 0.000398780
1.91583E+06 0.000397436
1.91728E+06 0.000396102
1.91874E+06 0.000394759
1.92021E+06 0.000393407
1.92100E+06 0.000392680
1.92167E+06 0.000392064
1.92314E+06 0.000390711
1.92460E+06 0.000389368
1.92570E+06 0.000388356
1.92644E+06 0.000387675
1.92717E+06 0.000387004
1.92791E+06 0.000386323
1.92865E+06 0.000385642
1.92938E+06 0.000384970
1.93012E+06 0.000384290
1.93086E+06 0.000383609
1.93159E+06 0.000382937
1.93233E+06 0.000382256
1.93307E+06 0.000381576
1.93381E+06 0.000380895
1.93510E+06 0.000379708
1.93696E+06 0.000377997
1.93881E+06 0.000376295
1.94067E+06 0.000374584
1.94253E+06 0.000372872
1.94360E+06 0.000371888
1.94439E+06 0.000371161
1.94625E+06 0.000369450
1.94812E+06 0.000367730
1.94999E+06 0.000366009
1.95186E+06 0.000364289
1.95374E+06 0.000362559
1.95562E+06 0.000360830
1.95750E+06 0.000359100
1.95938E+06 0.000357370
1.96108E+06 0.000355806
1.96259E+06 0.000354417
1.96410E+06 0.000353028
1.96562E+06 0.000351630
1.96713E+06 0.000350240
1.96865E+06 0.000348842
1.97017E+06 0.000347444
1.97169E+06 0.000346045
1.97220E+06 0.000345576
1.97321E+06 0.000344647
1.97474E+06 0.000343239
1.97626E+06 0.000341841
1.97779E+06 0.000340433
1.97932E+06 0.000339026
1.98086E+06 0.000337609
1.98239E+06 0.000336201
1.98392E+06 0.000334794
1.98546E+06 0.000333377
1.98662E+06 0.000332310
1.98739E+06 0.000331601
1.98816E+06 0.000330893
1.98893E+06 0.000330184
1.98970E+06 0.000329476
1.99047E+06 0.000328768
1.99124E+06 0.000328059
1.99202E+06 0.000327342
1.99279E+06 0.000326633
1.99356E+06 0.000325925
1.99434E+06 0.000325207
1.99511E+06 0.000324499
1.99589E+06 0.000323781
1.99724E+06 0.000322539
1.99730E+06 0.000322484
1.99918E+06 0.000320754
2.00000E+06 0.000320000
2.00113E+06 0.000319898
2.00308E+06 0.000319723
2.00503E+06 0.000319547
2.00698E+06 0.000319372
2.00893E+06 0.000319196
2.01089E+06 0.000319020
2.01285E+06 0.000318844
2.01482E+06 0.000318666
2.01678E+06 0.000318490
2.01875E+06 0.000318313
2.02073E+06 0.000318134
2.02270E+06 0.000317957
2.02468E+06 0.000317779
2.02666E+06 0.000317601
2.02865E+06 0.000317422
2.03063E+06 0.000317243
2.03262E+06 0.000317064
2.03280E+06 0.000317048
2.03462E+06 0.000316884
2.03661E+06 0.000316705
2.03801E+06 0.000316579
2.03881E+06 0.000316507
2.03961E+06 0.000316435
2.04041E+06 0.000316363
2.04122E+06 0.000316290
2.04202E+06 0.000316218
2.04282E+06 0.000316146
2.04362E+06 0.000316074
2.04443E+06 0.000316001
2.04523E+06 0.000315929
2.04644E+06 0.000315820
2.04805E+06 0.000315676
2.04930E+06 0.000315563
2.04966E+06 0.000315531
2.05128E+06 0.000315385
2.05289E+06 0.000315240
2.05451E+06 0.000315094
2.05613E+06 0.000314948
2.05735E+06 0.000314839
2.05800E+06 0.000314780
2.05816E+06 0.000314766
2.05897E+06 0.000314693
2.05978E+06 0.000314620
2.06060E+06 0.000314546
2.06141E+06 0.000314473
2.06222E+06 0.000314400
2.06304E+06 0.000314326
2.06385E+06 0.000314254
2.06400E+06 0.000314240
2.06467E+06 0.000314180
2.06548E+06 0.000314107
2.06630E+06 0.000314033
2.06752E+06 0.000313923
2.06916E+06 0.000313776
2.07010E+06 0.000313691
2.07080E+06 0.000313628
2.07244E+06 0.000313480
2.07360E+06 0.000313376
2.07408E+06 0.000313333
2.07572E+06 0.000313185
2.07737E+06 0.000313037
2.07902E+06 0.000312888
2.08025E+06 0.000312778
2.08108E+06 0.000312703
2.08190E+06 0.000312629
2.08273E+06 0.000312554
2.08356E+06 0.000312480
2.08438E+06 0.000312406
2.08521E+06 0.000312331
2.08604E+06 0.000312256
2.08660E+06 0.000312206
2.08687E+06 0.000312182
2.08770E+06 0.000312107
2.08853E+06 0.000312032
2.08936E+06 0.000311958
2.09019E+06 0.000311883
2.09102E+06 0.000311808
2.09185E+06 0.000311734
2.09268E+06 0.000311659
2.09351E+06 0.000311584
2.09435E+06 0.000311509
2.09440E+06 0.000311504
2.09518E+06 0.000311434
2.09601E+06 0.000311359
2.09727E+06 0.000311246
2.09870E+06 0.000311117
2.09894E+06 0.000311095
2.10061E+06 0.000310945
2.10229E+06 0.000310794
2.10396E+06 0.000310644
2.10560E+06 0.000310496
2.10564E+06 0.000310492
2.10732E+06 0.000310341
2.10901E+06 0.000310189
2.11027E+06 0.000310076
2.11111E+06 0.000310000
2.11196E+06 0.000309924
2.11280E+06 0.000309848
2.11364E+06 0.000309772
2.11449E+06 0.000309696
2.11520E+06 0.000309632
2.11534E+06 0.000309619
2.11618E+06 0.000309544
2.11703E+06 0.000309467
2.11788E+06 0.000309391
2.11872E+06 0.000309315
2.11957E+06 0.000309239
2.12042E+06 0.000309162
2.12120E+06 0.000309092
2.12127E+06 0.000309086
2.12212E+06 0.000309009
2.12297E+06 0.000308933
2.12382E+06 0.000308856
2.12467E+06 0.000308780
2.12574E+06 0.000308683
2.12701E+06 0.000308569
2.12829E+06 0.000308454
2.13000E+06 0.000308300
2.13214E+06 0.000308107
2.13420E+06 0.000307922
2.13428E+06 0.000307915
2.13643E+06 0.000307721
2.13858E+06 0.000307528
2.14073E+06 0.000307334
2.14288E+06 0.000307141
2.14504E+06 0.000306946
2.14720E+06 0.000306752
2.14936E+06 0.000306558
2.15153E+06 0.000306362
2.15370E+06 0.000306167
2.15588E+06 0.000305971
2.15805E+06 0.000305776
2.16023E+06 0.000305579
2.16242E+06 0.000305382
2.16280E+06 0.000305348
2.16461E+06 0.000305185
2.16636E+06 0.000305028
2.16767E+06 0.000304910
2.16899E+06 0.000304791
2.17031E+06 0.000304672
2.17163E+06 0.000304553
2.17295E+06 0.000304435
2.17427E+06 0.000304316
2.17559E+06 0.000304197
2.17692E+06 0.000304077
2.17824E+06 0.000303958
2.17930E+06 0.000303863
2.17957E+06 0.000303839
2.18134E+06 0.000303679
2.18356E+06 0.000303480
2.18578E+06 0.000303280
2.18800E+06 0.000303080
2.19022E+06 0.000302880
2.19245E+06 0.000302680
2.19469E+06 0.000302478
2.19490E+06 0.000302459
2.19692E+06 0.000302277
2.19916E+06 0.000302076
2.20141E+06 0.000301873
2.20365E+06 0.000301672
2.20590E+06 0.000301469
2.20816E+06 0.000301266
2.21042E+06 0.000301062
2.21220E+06 0.000300902
2.21268E+06 0.000300859
2.21494E+06 0.000300655
2.21660E+06 0.000300506
2.21721E+06 0.000300451
2.21903E+06 0.000300287
2.22039E+06 0.000300165
2.22175E+06 0.000300043
2.22312E+06 0.000299919
2.22440E+06 0.000299804
2.22449E+06 0.000299796
2.22586E+06 0.000299673
2.22723E+06 0.000299549
2.22860E+06 0.000299426
2.22960E+06 0.000299336
2.22997E+06 0.000299303
2.23135E+06 0.000299179
2.23272E+06 0.000299055
2.23410E+06 0.000298931
2.23548E+06 0.000298807
2.23560E+06 0.000298796
2.23686E+06 0.000298683
2.23824E+06 0.000298558
2.24008E+06 0.000298393
2.24239E+06 0.000298185
2.24470E+06 0.000297977
2.24701E+06 0.000297769
2.24933E+06 0.000297560
2.24950E+06 0.000297545
2.25165E+06 0.000297352
2.25397E+06 0.000297143
2.25630E+06 0.000296933
2.25863E+06 0.000296723
2.25900E+06 0.000296690
2.26097E+06 0.000296513
2.26330E+06 0.000296303
2.26565E+06 0.000296092
2.26799E+06 0.000295881
2.26860E+06 0.000295826
2.27034E+06 0.000295669
2.27270E+06 0.000295457
2.27505E+06 0.000295246
2.27550E+06 0.000295205
2.27741E+06 0.000295033
2.27978E+06 0.000294820
2.28215E+06 0.000294607
2.28330E+06 0.000294503
2.28452E+06 0.000294393
2.28689E+06 0.000294180
2.28927E+06 0.000293966
2.29166E+06 0.000293751
2.29280E+06 0.000293648
2.29404E+06 0.000293536
2.29643E+06 0.000293321
2.29883E+06 0.000293105
2.30123E+06 0.000292889
2.30363E+06 0.000292673
2.30500E+06 0.000292550
2.30603E+06 0.000292457
2.30844E+06 0.000292240
2.31086E+06 0.000292023
2.31327E+06 0.000291806
2.31569E+06 0.000291588
2.31812E+06 0.000291369
2.32055E+06 0.000291151
2.32298E+06 0.000290932
2.32541E+06 0.000290713
2.32785E+06 0.000290494
2.33030E+06 0.000290273
2.33140E+06 0.000290174
2.33274E+06 0.000290053
2.33519E+06 0.000289833
2.33740E+06 0.000289634
2.33937E+06 0.000289457
2.34134E+06 0.000289279
2.34331E+06 0.000289102
2.34529E+06 0.000288924
2.34726E+06 0.000288747
2.34924E+06 0.000288568
2.35122E+06 0.000288390
2.35321E+06 0.000288211
2.35519E+06 0.000288033
2.35630E+06 0.000287933
2.35718E+06 0.000287854
2.35917E+06 0.000287675
2.36117E+06 0.000287495
2.36316E+06 0.000287316
2.36516E+06 0.000287136
2.36667E+06 0.000287000
2.36767E+06 0.000286910
2.36867E+06 0.000286820
2.36967E+06 0.000286730
2.37040E+06 0.000286664
2.37068E+06 0.000286639
2.37168E+06 0.000286549
2.37268E+06 0.000286459
2.37369E+06 0.000286368
2.37470E+06 0.000286277
2.37570E+06 0.000286187
2.37671E+06 0.000286096
2.37690E+06 0.000286079
2.37772E+06 0.000286005
2.37873E+06 0.000285914
2.37974E+06 0.000285823
2.38075E+06 0.000285733
2.38176E+06 0.000285642
2.38327E+06 0.000285506
2.38530E+06 0.000285323
2.38732E+06 0.000285141
2.38780E+06 0.000285098
2.38935E+06 0.000284959
2.39139E+06 0.000284775
2.39342E+06 0.000284592
2.39546E+06 0.000284409
2.39750E+06 0.000284225
2.39954E+06 0.000284041
2.40159E+06 0.000283857
2.40290E+06 0.000283739
2.40364E+06 0.000283672
2.40569E+06 0.000283488
2.40774E+06 0.000283303
2.40980E+06 0.000283118
2.41186E+06 0.000282933
2.41392E+06 0.000282747
2.41598E+06 0.000282562
2.41805E+06 0.000282376
2.42012E+06 0.000282189
2.42219E+06 0.000282003
2.42427E+06 0.000281816
2.42570E+06 0.000281687
2.42634E+06 0.000281629
2.42842E+06 0.000281442
2.43051E+06 0.000281254
2.43259E+06 0.000281067
2.43468E+06 0.000280879
2.43677E+06 0.000280691
2.43886E+06 0.000280503
2.44096E+06 0.000280314
2.44190E+06 0.000280229
2.44306E+06 0.000280125
2.44516E+06 0.000279936
2.44726E+06 0.000279747
2.44937E+06 0.000279557
2.45148E+06 0.000279367
2.45359E+06 0.000279177
2.45571E+06 0.000278986
2.45783E+06 0.000278795
2.45930E+06 0.000278663
2.45995E+06 0.000278605
2.46207E+06 0.000278414
2.46250E+06 0.000278375
2.46420E+06 0.000278222
2.46633E+06 0.000278030
2.46846E+06 0.000277839
2.47059E+06 0.000277647
2.47273E+06 0.000277454
2.47487E+06 0.000277262
2.47660E+06 0.000277106
2.47701E+06 0.000277069
2.47916E+06 0.000276876
2.48131E+06 0.000276682
2.48346E+06 0.000276489
2.48530E+06 0.000276323
2.48561E+06 0.000276295
2.48723E+06 0.000276149
2.48831E+06 0.000276052
2.48939E+06 0.000275955
2.49047E+06 0.000275858
2.49155E+06 0.000275761
2.49263E+06 0.000275663
2.49372E+06 0.000275565
2.49390E+06 0.000275549
2.49480E+06 0.000275468
2.49588E+06 0.000275371
2.49697E+06 0.000275273
2.49805E+06 0.000275176
2.49914E+06 0.000275077
2.50023E+06 0.000274979
2.50131E+06 0.000274882
2.50240E+06 0.000274784
2.50349E+06 0.000274686
2.50458E+06 0.000274588
2.50594E+06 0.000274465
2.50690E+06 0.000274379
2.50758E+06 0.000274318
2.50922E+06 0.000274170
2.51086E+06 0.000274023
2.51250E+06 0.000273875
2.51415E+06 0.000273727
2.51579E+06 0.000273579
2.51744E+06 0.000273430
2.51909E+06 0.000273282
2.52074E+06 0.000273133
2.52294E+06 0.000272935
2.52570E+06 0.000272687
2.52846E+06 0.000272439
2.52860E+06 0.000272426
2.53123E+06 0.000272189
2.53400E+06 0.000271940
2.53677E+06 0.000271691
2.53955E+06 0.000271441
2.54234E+06 0.000271189
2.54513E+06 0.000270938
2.54792E+06 0.000270687
2.55072E+06 0.000270435
2.55140E+06 0.000270374
2.55353E+06 0.000270182
2.55633E+06 0.000269930
2.55915E+06 0.000269677
2.56196E+06 0.000269424
2.56478E+06 0.000269170
2.56540E+06 0.000269114
2.56761E+06 0.000268915
2.57044E+06 0.000268660
2.57328E+06 0.000268405
2.57612E+06 0.000268149
2.57840E+06 0.000267944
2.57896E+06 0.000267894
2.58181E+06 0.000267637
2.58467E+06 0.000267380
2.58753E+06 0.000267122
2.59039E+06 0.000266865
2.59326E+06 0.000266607
2.59614E+06 0.000266347
2.59900E+06 0.000266090
2.59902E+06 0.000266088
2.60190E+06 0.000265829
2.60421E+06 0.000265621
2.60594E+06 0.000265465
2.60768E+06 0.000265309
2.60942E+06 0.000265152
2.61116E+06 0.000264996
2.61290E+06 0.000264839
2.61464E+06 0.000264682
2.61639E+06 0.000264525
2.61813E+06 0.000264368
2.61988E+06 0.000264211
2.62163E+06 0.000264053
2.62290E+06 0.000263939
2.62339E+06 0.000263895
2.62514E+06 0.000263737
2.62690E+06 0.000263579
2.62865E+06 0.000263422
2.63041E+06 0.000263263
2.63217E+06 0.000263105
2.63340E+06 0.000262994
2.63394E+06 0.000262945
2.63570E+06 0.000262787
2.63747E+06 0.000262628
2.63924E+06 0.000262468
2.64100E+06 0.000262310
2.64101E+06 0.000262309
2.64278E+06 0.000262150
2.64455E+06 0.000261991
2.64633E+06 0.000261830
2.64810E+06 0.000261671
2.64988E+06 0.000261511
2.65166E+06 0.000261351
2.65344E+06 0.000261190
2.65493E+06 0.000261056
2.65612E+06 0.000260949
2.65731E+06 0.000260842
2.65850E+06 0.000260735
2.65970E+06 0.000260627
2.66070E+06 0.000260537
2.66089E+06 0.000260520
2.66208E+06 0.000260413
2.66328E+06 0.000260305
2.66448E+06 0.000260197
2.66567E+06 0.000260090
2.66687E+06 0.000259982
2.66807E+06 0.000259874
2.66927E+06 0.000259766
2.67077E+06 0.000259631
2.67257E+06 0.000259469
2.67280E+06 0.000259448
2.67437E+06 0.000259307
2.67618E+06 0.000259144
2.67799E+06 0.000258981
2.67960E+06 0.000258836
2.67979E+06 0.000258819
2.68161E+06 0.000258655
2.68342E+06 0.000258492
2.68523E+06 0.000258329
2.68705E+06 0.000258166
2.68887E+06 0.000258002
2.69069E+06 0.000257838
2.69251E+06 0.000257674
2.69433E+06 0.000257510
2.69616E+06 0.000257346
2.69799E+06 0.000257181
2.69930E+06 0.000257063
2.69982E+06 0.000257016
2.70165E+06 0.000256852
2.70348E+06 0.000256687
2.70531E+06 0.000256522
2.70715E+06 0.000256357
2.70899E+06 0.000256191
2.71083E+06 0.000256025
2.71267E+06 0.000255860
2.71300E+06 0.000255830
2.71452E+06 0.000255693
2.71636E+06 0.000255528
2.71821E+06 0.000255361
2.72006E+06 0.000255195
2.72191E+06 0.000255028
2.72377E+06 0.000254861
2.72562E+06 0.000254694
2.72748E+06 0.000254527
2.72934E+06 0.000254359
2.73120E+06 0.000254192
2.73307E+06 0.000254024
2.73493E+06 0.000253856
2.73680E+06 0.000253688
2.73800E+06 0.000253580
2.73867E+06 0.000253520
2.74054E+06 0.000253351
2.74241E+06 0.000253183
2.74429E+06 0.000253014
2.74554E+06 0.000252901
2.74554E+06 0.000252901
2.74616E+06 0.000252846
2.74804E+06 0.000252676
2.74992E+06 0.000252507
2.75180E+06 0.000252338
2.75400E+06 0.000252140
2.75652E+06 0.000251913
2.75904E+06 0.000251686
2.76000E+06 0.000251600
2.76156E+06 0.000251460
2.76409E+06 0.000251232
2.76460E+06 0.000251186
2.76662E+06 0.000251004
2.76915E+06 0.000250777
2.77169E+06 0.000250548
2.77423E+06 0.000250319
2.77677E+06 0.000250091
2.77932E+06 0.000249861
2.78000E+06 0.000249800
2.78187E+06 0.000249632
2.78443E+06 0.000249401
2.78698E+06 0.000249172
2.78880E+06 0.000249008
2.78955E+06 0.000248941
2.79211E+06 0.000248710
2.79468E+06 0.000248479
2.79725E+06 0.000248248
2.79983E+06 0.000248015
2.80000E+06 0.000248000
2.80241E+06 0.000247783
2.80499E+06 0.000247551
2.80758E+06 0.000247318
2.80860E+06 0.000247226
2.81017E+06 0.000247085
2.81276E+06 0.000246852
2.81536E+06 0.000246618
2.81796E+06 0.000246384
2.82000E+06 0.000246200
2.82056E+06 0.000246150
2.82317E+06 0.000245915
2.82578E+06 0.000245680
2.82750E+06 0.000245525
2.82840E+06 0.000245444
2.83101E+06 0.000245209
2.83364E+06 0.000244972
2.83626E+06 0.000244737
2.83889E+06 0.000244500
2.84153E+06 0.000244262
2.84270E+06 0.000244157
2.84416E+06 0.000244026
2.84681E+06 0.000243787
2.84945E+06 0.000243550
2.85210E+06 0.000243311
2.85410E+06 0.000243131
2.85475E+06 0.000243073
2.85741E+06 0.000242833
2.86007E+06 0.000242594
2.86273E+06 0.000242354
2.86390E+06 0.000242249
2.86539E+06 0.000242115
2.86807E+06 0.000241874
2.87074E+06 0.000241633
2.87308E+06 0.000241423
2.87509E+06 0.000241242
2.87680E+06 0.000241088
2.87711E+06 0.000241060
2.87912E+06 0.000240879
2.88114E+06 0.000240697
2.88316E+06 0.000240516
2.88518E+06 0.000240334
2.88720E+06 0.000240152
2.88890E+06 0.000239999
2.88923E+06 0.000239969
2.89125E+06 0.000239788
2.89328E+06 0.000239605
2.89532E+06 0.000239421
2.89735E+06 0.000239239
2.89939E+06 0.000239055
2.90143E+06 0.000238871
2.90340E+06 0.000238694
2.90347E+06 0.000238688
2.90551E+06 0.000238504
2.90755E+06 0.000238321
2.90960E+06 0.000238136
2.91165E+06 0.000237952
2.91370E+06 0.000237767
2.91575E+06 0.000237583
2.91630E+06 0.000237533
2.91747E+06 0.000237428
2.91884E+06 0.000237304
2.92021E+06 0.000237181
2.92158E+06 0.000237058
2.92296E+06 0.000236934
2.92433E+06 0.000236810
2.92571E+06 0.000236686
2.92709E+06 0.000236562
2.92847E+06 0.000236438
2.92985E+06 0.000236314
2.93123E+06 0.000236189
2.93261E+06 0.000236065
2.93399E+06 0.000235941
2.93537E+06 0.000235817
2.93676E+06 0.000235692
2.93814E+06 0.000235567
2.93900E+06 0.000235490
2.93953E+06 0.000235442
2.94000E+06 0.000235400
2.94091E+06 0.000235318
2.94230E+06 0.000235193
2.94369E+06 0.000235068
2.94508E+06 0.000234943
2.94647E+06 0.000234818
2.94786E+06 0.000234693
2.94926E+06 0.000234567
2.95065E+06 0.000234442
2.95205E+06 0.000234316
2.95414E+06 0.000234127
2.95693E+06 0.000233876
2.95974E+06 0.000233623
2.96000E+06 0.000233600
2.96254E+06 0.000233371
2.96535E+06 0.000233119
2.96550E+06 0.000233105
2.96816E+06 0.000232866
2.97097E+06 0.000232613
2.97379E+06 0.000232359
2.97662E+06 0.000232104
2.97945E+06 0.000231850
2.98228E+06 0.000231595
2.98511E+06 0.000231340
2.98530E+06 0.000231323
2.98795E+06 0.000231085
2.99080E+06 0.000230828
2.99329E+06 0.000230604
2.99543E+06 0.000230411
2.99757E+06 0.000230219
2.99971E+06 0.000230026
3.00000E+06 0.000230000
3.00186E+06 0.000230093
3.00400E+06 0.000230200
3.00615E+06 0.000230308
3.00831E+06 0.000230416
3.01046E+06 0.000230523
3.01262E+06 0.000230631
3.01478E+06 0.000230739
3.01694E+06 0.000230847
3.01910E+06 0.000230955
3.02000E+06 0.000231000
3.02127E+06 0.000231064
3.02344E+06 0.000231172
3.02561E+06 0.000231281
3.02778E+06 0.000231389
3.02996E+06 0.000231498
3.03213E+06 0.000231607
3.03431E+06 0.000231716
3.03650E+06 0.000231825
3.03868E+06 0.000231934
3.04087E+06 0.000232044
3.04210E+06 0.000232105
3.04306E+06 0.000232153
3.04525E+06 0.000232263
3.04745E+06 0.000232373
3.04964E+06 0.000232482
3.05184E+06 0.000232592
3.05404E+06 0.000232702
3.05588E+06 0.000232794
3.05735E+06 0.000232868
3.05882E+06 0.000232941
3.06000E+06 0.000233000
3.06029E+06 0.000233015
3.06177E+06 0.000233089
3.06324E+06 0.000233162
3.06390E+06 0.000233195
3.06472E+06 0.000233236
3.06619E+06 0.000233310
3.06767E+06 0.000233384
3.06915E+06 0.000233458
3.07063E+06 0.000233532
3.07285E+06 0.000233643
3.07582E+06 0.000233791
3.07879E+06 0.000233940
3.08000E+06 0.000234000
3.08176E+06 0.000234088
3.08450E+06 0.000234225
3.08474E+06 0.000234237
3.08773E+06 0.000234387
3.09072E+06 0.000234536
3.09371E+06 0.000234686
3.09595E+06 0.000234798
3.09745E+06 0.000234873
3.09896E+06 0.000234948
3.10000E+06 0.000235000
3.10046E+06 0.000235023
3.10196E+06 0.000235098
3.10346E+06 0.000235173
3.10497E+06 0.000235249
3.10510E+06 0.000235255
3.10647E+06 0.000235324
3.10798E+06 0.000235399
3.10949E+06 0.000235475
3.11100E+06 0.000235550
3.11251E+06 0.000235626
3.11402E+06 0.000235701
3.11553E+06 0.000235777
3.11650E+06 0.000235825
3.11705E+06 0.000235853
3.11856E+06 0.000235928
3.12000E+06 0.000236000
3.12008E+06 0.000236004
3.12159E+06 0.000236080
3.12311E+06 0.000236156
3.12463E+06 0.000236232
3.12615E+06 0.000236308
3.12767E+06 0.000236384
3.12920E+06 0.000236460
3.13072E+06 0.000236536
3.13224E+06 0.000236612
3.13377E+06 0.000236689
3.13490E+06 0.000236745
3.13530E+06 0.000236765
3.13682E+06 0.000236841
3.13835E+06 0.000236918
3.13989E+06 0.000236995
3.14000E+06 0.000237000
3.14142E+06 0.000237071
3.14295E+06 0.000237148
3.14448E+06 0.000237224
3.14602E+06 0.000237301
3.14755E+06 0.000237378
3.14909E+06 0.000237455
3.15063E+06 0.000237532
3.15217E+06 0.000237609
3.15371E+06 0.000237686
3.15525E+06 0.000237763
3.15679E+06 0.000237840
3.15834E+06 0.000237917
3.15988E+06 0.000237994
3.16000E+06 0.000238000
3.16143E+06 0.000238072
3.16298E+06 0.000238149
3.16452E+06 0.000238226
3.16607E+06 0.000238304
3.16762E+06 0.000238381
3.16918E+06 0.000238459
3.17060E+06 0.000238530
3.17073E+06 0.000238537
3.17228E+06 0.000238614
3.17384E+06 0.000238692
3.17540E+06 0.000238770
3.17600E+06 0.000238800
3.17695E+06 0.000238848
3.17851E+06 0.000238926
3.18000E+06 0.000239000
3.18085E+06 0.000239043
3.18398E+06 0.000239199
3.18711E+06 0.000239356
3.19024E+06 0.000239512
3.19338E+06 0.000239669
3.19652E+06 0.000239826
3.19967E+06 0.000239984
3.20000E+06 0.000240000
3.20100E+06 0.000240050
3.20282E+06 0.000240141
3.20598E+06 0.000240299
3.20914E+06 0.000240457
3.21191E+06 0.000240596
3.21429E+06 0.000240715
3.21667E+06 0.000240834
3.21905E+06 0.000240953
3.21940E+06 0.000240970
3.22143E+06 0.000241072
3.22382E+06 0.000241191
3.22621E+06 0.000241311
3.22861E+06 0.000241431
3.23100E+06 0.000241550
3.23130E+06 0.000241565
3.23340E+06 0.000241670
3.23580E+06 0.000241790
3.23620E+06 0.000241810
3.23821E+06 0.000241911
3.24000E+06 0.000242000
3.24061E+06 0.000242031
3.24302E+06 0.000242151
3.24543E+06 0.000242272
3.24760E+06 0.000242380
3.24785E+06 0.000242393
3.25026E+06 0.000242513
3.25269E+06 0.000242635
3.25511E+06 0.000242756
3.25753E+06 0.000242877
3.26000E+06 0.000243000
3.26037E+06 0.000243019
3.26330E+06 0.000243165
3.26361E+06 0.000243181
3.26686E+06 0.000243343
3.27011E+06 0.000243506
3.27337E+06 0.000243669
3.27663E+06 0.000243832
3.27989E+06 0.000243995
3.28000E+06 0.000244000
3.28317E+06 0.000244159
3.28644E+06 0.000244322
3.28972E+06 0.000244486
3.29040E+06 0.000244520
3.29301E+06 0.000244651
3.29630E+06 0.000244815
3.29960E+06 0.000244980
3.30000E+06 0.000245000
3.30290E+06 0.000245145
3.30621E+06 0.000245311
3.30952E+06 0.000245476
3.31283E+06 0.000245642
3.31616E+06 0.000245808
3.31948E+06 0.000245974
3.32281E+06 0.000246141
3.32615E+06 0.000246308
3.32670E+06 0.000246335
3.32949E+06 0.000246475
3.33284E+06 0.000246642
3.33619E+06 0.000246810
3.33954E+06 0.000246977
3.34000E+06 0.000247000
3.34291E+06 0.000247146
3.34627E+06 0.000247314
3.34964E+06 0.000247482
3.35120E+06 0.000247560
3.35163E+06 0.000247582
3.35163E+06 0.000247582
3.35302E+06 0.000247651
3.35500E+06 0.000247750
3.35640E+06 0.000247820
3.35979E+06 0.000247990
3.36000E+06 0.000248000
3.36110E+06 0.000248055
3.36318E+06 0.000248159
3.36658E+06 0.000248329
3.36998E+06 0.000248499
3.37339E+06 0.000248670
3.37638E+06 0.000248819
3.37894E+06 0.000248947
3.38000E+06 0.000249000
3.38151E+06 0.000249076
3.38407E+06 0.000249204
3.38664E+06 0.000249332
3.38922E+06 0.000249461
3.39180E+06 0.000249590
3.39438E+06 0.000249719
3.39696E+06 0.000249848
3.39955E+06 0.000249978
3.40214E+06 0.000250107
3.40473E+06 0.000250237
3.40530E+06 0.000250265
3.40732E+06 0.000250366
3.40992E+06 0.000250496
3.41252E+06 0.000250626
3.41513E+06 0.000250757
3.41773E+06 0.000250887
3.42000E+06 0.000251000
3.42034E+06 0.000251017
3.42296E+06 0.000251148
3.42557E+06 0.000251279
3.42819E+06 0.000251410
3.42870E+06 0.000251435
3.43081E+06 0.000251541
3.43344E+06 0.000251672
3.43606E+06 0.000251803
3.43870E+06 0.000251935
3.44000E+06 0.000252000
3.44133E+06 0.000252067
3.44441E+06 0.000252221
3.44690E+06 0.000252345
3.44793E+06 0.000252397
3.45145E+06 0.000252573
3.45499E+06 0.000252750
3.45853E+06 0.000252927
3.46000E+06 0.000253000
3.46163E+06 0.000253082
3.46429E+06 0.000253215
3.46695E+06 0.000253348
3.46962E+06 0.000253481
3.47229E+06 0.000253615
3.47496E+06 0.000253748
3.47550E+06 0.000253775
3.47763E+06 0.000253882
3.48031E+06 0.000254016
3.48300E+06 0.000254150
3.48568E+06 0.000254284
3.48837E+06 0.000254419
3.49106E+06 0.000254553
3.49375E+06 0.000254688
3.49500E+06 0.000254750
3.49645E+06 0.000254823
3.49915E+06 0.000254958
3.50186E+06 0.000255093
3.50456E+06 0.000255228
3.50727E+06 0.000255364
3.50999E+06 0.000255500
3.51270E+06 0.000255635
3.51542E+06 0.000255771
3.51815E+06 0.000255908
3.51840E+06 0.000255920
3.52087E+06 0.000256044
3.52360E+06 0.000256180
3.52633E+06 0.000256317
3.52907E+06 0.000256454
3.53181E+06 0.000256591
3.53400E+06 0.000256700
3.53409E+06 0.000256705
3.53592E+06 0.000256796
3.53775E+06 0.000256888
3.53959E+06 0.000256980
3.54142E+06 0.000257071
3.54326E+06 0.000257163
3.54509E+06 0.000257255
3.54693E+06 0.000257347
3.54923E+06 0.000257462
3.55199E+06 0.000257600
3.55476E+06 0.000257738
3.55753E+06 0.000257877
3.56000E+06 0.000258000
3.56030E+06 0.000258015
3.56307E+06 0.000258154
3.56585E+06 0.000258293
3.56863E+06 0.000258432
3.57142E+06 0.000258571
3.57421E+06 0.000258711
3.57430E+06 0.000258715
3.57700E+06 0.000258850
3.57979E+06 0.000258990
3.58259E+06 0.000259130
3.58539E+06 0.000259270
3.58820E+06 0.000259410
3.59054E+06 0.000259527
3.59241E+06 0.000259621
3.59429E+06 0.000259715
3.59616E+06 0.000259808
3.59804E+06 0.000259902
3.59992E+06 0.000259996
3.60000E+06 0.000260000
3.60180E+06 0.000260090
3.60368E+06 0.000260184
3.60557E+06 0.000260279
3.60745E+06 0.000260373
3.60934E+06 0.000260467
3.61170E+06 0.000260585
3.61453E+06 0.000260727
3.61737E+06 0.000260869
3.62000E+06 0.000261000
3.62022E+06 0.000261011
3.62306E+06 0.000261153
3.62500E+06 0.000261250
3.62591E+06 0.000261296
3.62876E+06 0.000261438
3.63162E+06 0.000261581
3.63448E+06 0.000261724
3.63734E+06 0.000261867
3.63800E+06 0.000261900
3.64000E+06 0.000262000
3.64021E+06 0.000262011
3.64308E+06 0.000262154
3.64595E+06 0.000262298
3.64883E+06 0.000262442
3.65171E+06 0.000262586
3.65459E+06 0.000262730
3.65748E+06 0.000262874
3.66000E+06 0.000263000
3.66037E+06 0.000263019
3.66326E+06 0.000263163
3.66616E+06 0.000263308
3.66906E+06 0.000263453
3.67196E+06 0.000263598
3.67440E+06 0.000263720
3.67487E+06 0.000263744
3.67778E+06 0.000263889
3.68000E+06 0.000264000
3.68069E+06 0.000264035
3.68361E+06 0.000264181
3.68604E+06 0.000264302
3.68799E+06 0.000264400
3.68994E+06 0.000264497
3.69189E+06 0.000264595
3.69385E+06 0.000264693
3.69580E+06 0.000264790
3.69776E+06 0.000264888
3.69972E+06 0.000264986
3.70000E+06 0.000265000
3.70168E+06 0.000265084
3.70364E+06 0.000265182
3.70560E+06 0.000265280
3.70757E+06 0.000265379
3.70953E+06 0.000265477
3.71150E+06 0.000265575
3.71347E+06 0.000265674
3.71593E+06 0.000265797
3.71889E+06 0.000265945
3.71990E+06 0.000265995
3.72000E+06 0.000266000
3.72186E+06 0.000266093
3.72482E+06 0.000266241
3.72779E+06 0.000266390
3.73077E+06 0.000266539
3.73374E+06 0.000266687
3.73672E+06 0.000266836
3.73971E+06 0.000266986
3.74270E+06 0.000267135
3.74569E+06 0.000267285
3.74868E+06 0.000267434
3.74900E+06 0.000267450
3.75168E+06 0.000267584
3.75240E+06 0.000267620
3.75469E+06 0.000267735
3.75520E+06 0.000267760
3.75569E+06 0.000267785
3.75569E+06 0.000267785
3.75769E+06 0.000267885
3.76000E+06 0.000268000
3.76070E+06 0.000268035
3.76372E+06 0.000268186
3.76673E+06 0.000268337
3.76975E+06 0.000268488
3.77278E+06 0.000268639
3.77450E+06 0.000268725
3.77580E+06 0.000268790
3.77884E+06 0.000268942
3.78187E+06 0.000269094
3.78491E+06 0.000269246
3.78795E+06 0.000269398
3.79100E+06 0.000269550
3.79405E+06 0.000269703
3.79660E+06 0.000269830
3.79710E+06 0.000269855
3.80000E+06 0.000270000
3.80016E+06 0.000270008
3.80322E+06 0.000270161
3.80629E+06 0.000270315
3.80936E+06 0.000270468
3.81243E+06 0.000270622
3.81350E+06 0.000270675
3.81499E+06 0.000270750
3.81704E+06 0.000270852
3.81910E+06 0.000270955
3.82115E+06 0.000271058
3.82321E+06 0.000271161
3.82527E+06 0.000271264
3.82784E+06 0.000271392
3.83094E+06 0.000271547
3.83404E+06 0.000271702
3.83662E+06 0.000271831
3.83869E+06 0.000271935
3.84000E+06 0.000272000
3.84076E+06 0.000272038
3.84284E+06 0.000272142
3.84491E+06 0.000272246
3.84699E+06 0.000272350
3.84907E+06 0.000272454
3.85115E+06 0.000272558
3.85375E+06 0.000272688
3.85687E+06 0.000272844
3.86000E+06 0.000273000
3.86314E+06 0.000273157
3.86530E+06 0.000273265
3.86628E+06 0.000273314
3.86942E+06 0.000273471
3.87256E+06 0.000273628
3.87571E+06 0.000273786
3.87886E+06 0.000273943
3.88000E+06 0.000274000
3.88202E+06 0.000274101
3.88480E+06 0.000274240
3.88518E+06 0.000274259
3.88835E+06 0.000274418
3.89152E+06 0.000274576
3.89469E+06 0.000274735
3.89786E+06 0.000274893
3.90000E+06 0.000275000
3.90104E+06 0.000275052
3.90423E+06 0.000275212
3.90742E+06 0.000275371
3.91061E+06 0.000275531
3.91380E+06 0.000275690
3.91700E+06 0.000275850
3.92021E+06 0.000276011
3.92341E+06 0.000276171
3.92380E+06 0.000276190
3.92663E+06 0.000276332
3.92984E+06 0.000276492
3.93306E+06 0.000276653
3.93628E+06 0.000276814
3.93940E+06 0.000276970
3.93951E+06 0.000276976
3.94000E+06 0.000277000
3.94274E+06 0.000277137
3.94598E+06 0.000277299
3.94922E+06 0.000277461
3.95246E+06 0.000277623
3.95571E+06 0.000277786
3.95896E+06 0.000277948
3.96000E+06 0.000278000
3.96222E+06 0.000278111
3.96547E+06 0.000278274
3.96870E+06 0.000278435
3.96874E+06 0.000278437
3.97201E+06 0.000278601
3.97528E+06 0.000278764
3.97855E+06 0.000278928
3.98183E+06 0.000279092
3.98512E+06 0.000279256
3.98840E+06 0.000279420
3.99170E+06 0.000279585
3.99499E+06 0.000279750
3.99829E+06 0.000279915
3.99916E+06 0.000279958
3.99917E+06 0.000279958
4.00000E+06 0.000280000
4.00160E+06 0.000280112
4.00490E+06 0.000280343
4.00822E+06 0.000280575
4.01153E+06 0.000280807
4.01485E+06 0.000281040
4.01818E+06 0.000281273
4.02151E+06 0.000281506
4.02270E+06 0.000281589
4.02484E+06 0.000281739
4.02818E+06 0.000281973
4.03070E+06 0.000282149
4.03128E+06 0.000282190
4.03128E+06 0.000282190
4.03152E+06 0.000282206
4.03486E+06 0.000282440
4.03821E+06 0.000282675
4.04000E+06 0.000282800
4.04157E+06 0.000282910
4.04493E+06 0.000283145
4.04829E+06 0.000283380
4.05165E+06 0.000283616
4.05502E+06 0.000283851
4.05840E+06 0.000284088
4.06130E+06 0.000284291
4.06178E+06 0.000284325
4.06460E+06 0.000284522
4.06686E+06 0.000284680
4.06911E+06 0.000284838
4.07138E+06 0.000284997
4.07364E+06 0.000285155
4.07590E+06 0.000285313
4.07817E+06 0.000285472
4.08000E+06 0.000285600
4.08044E+06 0.000285631
4.08271E+06 0.000285790
4.08498E+06 0.000285949
4.08783E+06 0.000286148
4.09124E+06 0.000286387
4.09466E+06 0.000286626
4.09640E+06 0.000286748
4.09809E+06 0.000286866
4.10000E+06 0.000287000
4.10152E+06 0.000287106
4.10438E+06 0.000287307
4.10667E+06 0.000287467
4.10896E+06 0.000287627
4.11125E+06 0.000287788
4.11355E+06 0.000287949
4.11585E+06 0.000288110
4.11815E+06 0.000288271
4.12045E+06 0.000288432
4.12276E+06 0.000288593
4.12506E+06 0.000288754
4.12795E+06 0.000288957
4.13141E+06 0.000289199
4.13489E+06 0.000289442
4.13640E+06 0.000289548
4.13836E+06 0.000289685
4.14000E+06 0.000289800
4.14184E+06 0.000289929
4.14532E+06 0.000290172
4.14881E+06 0.000290417
4.15231E+06 0.000290662
4.15522E+06 0.000290865
4.15755E+06 0.000291029
4.15989E+06 0.000291192
4.16223E+06 0.000291356
4.16457E+06 0.000291520
4.16691E+06 0.000291684
4.16925E+06 0.000291848
4.17160E+06 0.000292012
4.17394E+06 0.000292176
4.17629E+06 0.000292340
4.17864E+06 0.000292505
4.18000E+06 0.000292600
4.18100E+06 0.000292670
4.18335E+06 0.000292835
4.18571E+06 0.000293000
4.18610E+06 0.000293027
4.18807E+06 0.000293165
4.19043E+06 0.000293330
4.19279E+06 0.000293495
4.19516E+06 0.000293661
4.19753E+06 0.000293827
4.19990E+06 0.000293993
4.20227E+06 0.000294159
4.20464E+06 0.000294325
4.20702E+06 0.000294491
4.20939E+06 0.000294657
4.21177E+06 0.000294824
4.21415E+06 0.000294991
4.21654E+06 0.000295158
4.21892E+06 0.000295324
4.22000E+06 0.000295400
4.22100E+06 0.000295470
4.22131E+06 0.000295492
4.22370E+06 0.000295659
4.22609E+06 0.000295826
4.22849E+06 0.000295994
4.23088E+06 0.000296162
4.23328E+06 0.000296330
4.23568E+06 0.000296498
4.23868E+06 0.000296708
4.24000E+06 0.000296800
4.24229E+06 0.000296960
4.24590E+06 0.000297213
4.24952E+06 0.000297466
4.25314E+06 0.000297720
4.25676E+06 0.000297973
4.25930E+06 0.000298151
4.26000E+06 0.000298200
4.26039E+06 0.000298227
4.26403E+06 0.000298482
4.26767E+06 0.000298737
4.27131E+06 0.000298992
4.27496E+06 0.000299247
4.27862E+06 0.000299503
4.28228E+06 0.000299760
4.28360E+06 0.000299852
4.28594E+06 0.000300016
4.28961E+06 0.000300273
4.29328E+06 0.000300530
4.29696E+06 0.000300787
4.30000E+06 0.000301000
4.30064E+06 0.000301045
4.30433E+06 0.000301303
4.30802E+06 0.000301561
4.30900E+06 0.000301630
4.31171E+06 0.000301820
4.31541E+06 0.000302079
4.31912E+06 0.000302338
4.32283E+06 0.000302598
4.32655E+06 0.000302859
4.33027E+06 0.000303119
4.33399E+06 0.000303379
4.33772E+06 0.000303640
4.34000E+06 0.000303800
4.34146E+06 0.000303902
4.34210E+06 0.000303947
4.34520E+06 0.000304164
4.34894E+06 0.000304426
4.35269E+06 0.000304688
4.35582E+06 0.000304907
4.35832E+06 0.000305082
4.36000E+06 0.000305200
4.36083E+06 0.000305258
4.36334E+06 0.000305434
4.36648E+06 0.000305654
4.37025E+06 0.000305918
4.37403E+06 0.000306182
4.37781E+06 0.000306447
4.38160E+06 0.000306712
4.38410E+06 0.000306887
4.38539E+06 0.000306977
4.38919E+06 0.000307243
4.39299E+06 0.000307509
4.39679E+06 0.000307775
4.40000E+06 0.000308000
4.40061E+06 0.000308043
4.40442E+06 0.000308309
4.40824E+06 0.000308577
4.41207E+06 0.000308845
4.41566E+06 0.000309096
4.41590E+06 0.000309113
4.41710E+06 0.000309197
4.41974E+06 0.000309382
4.42100E+06 0.000309470
4.42358E+06 0.000309651
4.42743E+06 0.000309920
4.43128E+06 0.000310190
4.43513E+06 0.000310459
4.43900E+06 0.000310730
4.44286E+06 0.000311000
4.44673E+06 0.000311271
4.45061E+06 0.000311543
4.45449E+06 0.000311814
4.45838E+06 0.000312087
4.46210E+06 0.000312347
4.46227E+06 0.000312359
4.46617E+06 0.000312632
4.47007E+06 0.000312905
4.47398E+06 0.000313179
4.47789E+06 0.000313452
4.48000E+06 0.000313600
4.48181E+06 0.000313727
4.48573E+06 0.000314001
4.48966E+06 0.000314276
4.49359E+06 0.000314551
4.49753E+06 0.000314827
4.50000E+06 0.000315000
4.50148E+06 0.000315104
4.50300E+06 0.000315210
4.50542E+06 0.000315379
4.50938E+06 0.000315657
4.51268E+06 0.000315888
4.51532E+06 0.000316072
4.51796E+06 0.000316257
4.52000E+06 0.000316400
4.52061E+06 0.000316443
4.52326E+06 0.000316628
4.52591E+06 0.000316814
4.52600E+06 0.000316820
4.52856E+06 0.000316999
4.53122E+06 0.000317185
4.53388E+06 0.000317372
4.53654E+06 0.000317558
4.53920E+06 0.000317744
4.54000E+06 0.000317800
4.54187E+06 0.000317931
4.54453E+06 0.000318117
4.54720E+06 0.000318304
4.54988E+06 0.000318492
4.55255E+06 0.000318679
4.55523E+06 0.000318866
4.55791E+06 0.000319054
4.56000E+06 0.000319200
4.56059E+06 0.000319241
4.56327E+06 0.000319429
4.56596E+06 0.000319617
4.56865E+06 0.000319806
4.57134E+06 0.000319994
4.57260E+06 0.000320082
4.57403E+06 0.000320182
4.57673E+06 0.000320371
4.57943E+06 0.000320560
4.58000E+06 0.000320600
4.58213E+06 0.000320749
4.58551E+06 0.000320986
4.58957E+06 0.000321270
4.59363E+06 0.000321554
4.59770E+06 0.000321839
4.60000E+06 0.000322000
4.60178E+06 0.000322125
4.60586E+06 0.000322410
4.60995E+06 0.000322697
4.61404E+06 0.000322983
4.61814E+06 0.000323270
4.62000E+06 0.000323400
4.62224E+06 0.000323557
4.62635E+06 0.000323845
4.63047E+06 0.000324133
4.63459E+06 0.000324421
4.63871E+06 0.000324710
4.64000E+06 0.000324800
4.64285E+06 0.000325000
4.64698E+06 0.000325289
4.65112E+06 0.000325578
4.65527E+06 0.000325869
4.65943E+06 0.000326160
4.66000E+06 0.000326200
4.66359E+06 0.000326451
4.66360E+06 0.000326452
4.66775E+06 0.000326743
4.67192E+06 0.000327034
4.67610E+06 0.000327327
4.68028E+06 0.000327620
4.68446E+06 0.000327912
4.68866E+06 0.000328206
4.69216E+06 0.000328451
4.69496E+06 0.000328647
4.69776E+06 0.000328843
4.70000E+06 0.000329000
4.70057E+06 0.000329040
4.70338E+06 0.000329237
4.70619E+06 0.000329433
4.70900E+06 0.000329630
4.71182E+06 0.000329827
4.71464E+06 0.000330025
4.71746E+06 0.000330222
4.72000E+06 0.000330400
4.72028E+06 0.000330420
4.72311E+06 0.000330618
4.72320E+06 0.000330624
4.72594E+06 0.000330816
4.72877E+06 0.000331014
4.73160E+06 0.000331212
4.73444E+06 0.000331411
4.73728E+06 0.000331610
4.74000E+06 0.000331800
4.74012E+06 0.000331808
4.74297E+06 0.000332008
4.74653E+06 0.000332257
4.75080E+06 0.000332556
4.75509E+06 0.000332856
4.75937E+06 0.000333156
4.76367E+06 0.000333457
4.76797E+06 0.000333758
4.77227E+06 0.000334059
4.77560E+06 0.000334292
4.77658E+06 0.000334361
4.77740E+06 0.000334418
4.78000E+06 0.000334600
4.78090E+06 0.000334663
4.78138E+06 0.000334697
4.78139E+06 0.000334697
4.78350E+06 0.000334845
4.78523E+06 0.000334966
4.78955E+06 0.000335269
4.79317E+06 0.000335522
4.79606E+06 0.000335724
4.79895E+06 0.000335927
4.80000E+06 0.000336000
4.80185E+06 0.000336130
4.80475E+06 0.000336333
4.80766E+06 0.000336536
4.80990E+06 0.000336693
4.81056E+06 0.000336739
4.81347E+06 0.000336943
4.81638E+06 0.000337147
4.81929E+06 0.000337350
4.82000E+06 0.000337400
4.82221E+06 0.000337555
4.82513E+06 0.000337759
4.82805E+06 0.000337964
4.83098E+06 0.000338169
4.83390E+06 0.000338373
4.83683E+06 0.000338578
4.83977E+06 0.000338784
4.84000E+06 0.000338800
4.84240E+06 0.000338968
4.84270E+06 0.000338989
4.84564E+06 0.000339195
4.84858E+06 0.000339401
4.85152E+06 0.000339606
4.85447E+06 0.000339813
4.85741E+06 0.000340019
4.86000E+06 0.000340200
4.86037E+06 0.000340226
4.86332E+06 0.000340432
4.86400E+06 0.000340480
4.86628E+06 0.000340640
4.86924E+06 0.000340847
4.87220E+06 0.000341054
4.87516E+06 0.000341261
4.87813E+06 0.000341469
4.88000E+06 0.000341600
4.88110E+06 0.000341677
4.88407E+06 0.000341885
4.88705E+06 0.000342094
4.89077E+06 0.000342354
4.89524E+06 0.000342667
4.89650E+06 0.000342755
4.89972E+06 0.000342980
4.90000E+06 0.000343000
4.90346E+06 0.000343242
4.90646E+06 0.000343452
4.90945E+06 0.000343662
4.91245E+06 0.000343872
4.91545E+06 0.000344082
4.91846E+06 0.000344292
4.92146E+06 0.000344502
4.92447E+06 0.000344713
4.92749E+06 0.000344924
4.93050E+06 0.000345135
4.93427E+06 0.000345399
4.93881E+06 0.000345717
4.94000E+06 0.000345800
4.94335E+06 0.000346035
4.94789E+06 0.000346352
4.95245E+06 0.000346672
4.95400E+06 0.000346780
4.95700E+06 0.000346990
4.96000E+06 0.000347200
4.96157E+06 0.000347310
4.96614E+06 0.000347630
4.97072E+06 0.000347950
4.97530E+06 0.000348271
4.97989E+06 0.000348592
4.98000E+06 0.000348600
4.98449E+06 0.000348914
4.98909E+06 0.000349236
4.99370E+06 0.000349559
4.99832E+06 0.000349882
5.00000E+06 0.000350000
5.00294E+06 0.000349971
5.00621E+06 0.000349938
5.00660E+06 0.000349934
5.00757E+06 0.000349924
5.01220E+06 0.000349878
5.01685E+06 0.000349832
5.02000E+06 0.000349800
5.02149E+06 0.000349785
5.02615E+06 0.000349739
5.02980E+06 0.000349702
5.03081E+06 0.000349692
5.03470E+06 0.000349653
5.03781E+06 0.000349622
5.04000E+06 0.000349600
5.04093E+06 0.000349591
5.04405E+06 0.000349560
5.04717E+06 0.000349528
5.04900E+06 0.000349510
5.04972E+06 0.000349503
5.04972E+06 0.000349503
5.05030E+06 0.000349497
5.05343E+06 0.000349466
5.05656E+06 0.000349434
5.05970E+06 0.000349403
5.06283E+06 0.000349372
5.06598E+06 0.000349340
5.06912E+06 0.000349309
5.07227E+06 0.000349277
5.07542E+06 0.000349246
5.07857E+06 0.000349214
5.08000E+06 0.000349200
5.08172E+06 0.000349183
5.08488E+06 0.000349151
5.08883E+06 0.000349112
5.09358E+06 0.000349064
5.09834E+06 0.000349017
5.10000E+06 0.000349000
5.10310E+06 0.000348969
5.10787E+06 0.000348921
5.11110E+06 0.000348889
5.11264E+06 0.000348874
5.11743E+06 0.000348826
5.12222E+06 0.000348778
5.12701E+06 0.000348730
5.13101E+06 0.000348690
5.13422E+06 0.000348658
5.13743E+06 0.000348626
5.14000E+06 0.000348600
5.14064E+06 0.000348594
5.14385E+06 0.000348562
5.14707E+06 0.000348529
5.15010E+06 0.000348499
5.15029E+06 0.000348497
5.15351E+06 0.000348465
5.15400E+06 0.000348460
5.15674E+06 0.000348433
5.15850E+06 0.000348415
5.15851E+06 0.000348415
5.15996E+06 0.000348400
5.16000E+06 0.000348400
5.16320E+06 0.000348368
5.16643E+06 0.000348336
5.16967E+06 0.000348303
5.17291E+06 0.000348271
5.17697E+06 0.000348230
5.18184E+06 0.000348182
5.18672E+06 0.000348133
5.19161E+06 0.000348084
5.19450E+06 0.000348055
5.19650E+06 0.000348035
5.20000E+06 0.000348000
5.20140E+06 0.000347986
5.20631E+06 0.000347937
5.21122E+06 0.000347888
5.21614E+06 0.000347839
5.21720E+06 0.000347828
5.22000E+06 0.000347800
5.22107E+06 0.000347789
5.22601E+06 0.000347740
5.23095E+06 0.000347691
5.23590E+06 0.000347641
5.24000E+06 0.000347600
5.24086E+06 0.000347591
5.24582E+06 0.000347542
5.25000E+06 0.000347500
5.25079E+06 0.000347492
5.25577E+06 0.000347442
5.26000E+06 0.000347400
5.26076E+06 0.000347392
5.26575E+06 0.000347343
5.27075E+06 0.000347293
5.27250E+06 0.000347275
5.27575E+06 0.000347243
5.28000E+06 0.000347200
5.28077E+06 0.000347192
5.28579E+06 0.000347142
5.29082E+06 0.000347092
5.29585E+06 0.000347042
5.30000E+06 0.000347000
5.30089E+06 0.000346991
5.30594E+06 0.000346941
5.31100E+06 0.000346890
5.31606E+06 0.000346839
5.32000E+06 0.000346800
5.32114E+06 0.000346789
5.32621E+06 0.000346738
5.33130E+06 0.000346687
5.33639E+06 0.000346636
5.34000E+06 0.000346600
5.34149E+06 0.000346585
5.34660E+06 0.000346534
5.35172E+06 0.000346483
5.35210E+06 0.000346479
5.35684E+06 0.000346432
5.36000E+06 0.000346400
5.36197E+06 0.000346380
5.36711E+06 0.000346329
5.37225E+06 0.000346278
5.37540E+06 0.000346246
5.37741E+06 0.000346226
5.38256E+06 0.000346174
5.38773E+06 0.000346123
5.39291E+06 0.000346071
5.39809E+06 0.000346019
5.39920E+06 0.000346008
5.40000E+06 0.000346000
5.40010E+06 0.000345999
5.40198E+06 0.000345980
5.40198E+06 0.000345980
5.40328E+06 0.000345967
5.40847E+06 0.000345915
5.41368E+06 0.000345863
5.41889E+06 0.000345811
5.42090E+06 0.000345791
5.42166E+06 0.000345783
5.42167E+06 0.000345783
5.42411E+06 0.000345759
5.42847E+06 0.000345715
5.43195E+06 0.000345681
5.43545E+06 0.000345646
5.43894E+06 0.000345611
5.44000E+06 0.000345600
5.44244E+06 0.000345576
5.44594E+06 0.000345541
5.44945E+06 0.000345506
5.44950E+06 0.000345505
5.45295E+06 0.000345471
5.45647E+06 0.000345435
5.45998E+06 0.000345400
5.46000E+06 0.000345400
5.46350E+06 0.000345365
5.46702E+06 0.000345330
5.47055E+06 0.000345295
5.47408E+06 0.000345259
5.47761E+06 0.000345224
5.48115E+06 0.000345189
5.48469E+06 0.000345153
5.48823E+06 0.000345118
5.49177E+06 0.000345082
5.49500E+06 0.000345050
5.49532E+06 0.000345047
5.49888E+06 0.000345011
5.50000E+06 0.000345000
5.50243E+06 0.000344976
5.50599E+06 0.000344940
5.50956E+06 0.000344904
5.51000E+06 0.000344900
5.51312E+06 0.000344869
5.51669E+06 0.000344833
5.52000E+06 0.000344800
5.52027E+06 0.000344797
5.52385E+06 0.000344762
5.52832E+06 0.000344717
5.53370E+06 0.000344663
5.53909E+06 0.000344609
5.54000E+06 0.000344600
5.54448E+06 0.000344555
5.54988E+06 0.000344501
5.55530E+06 0.000344447
5.56000E+06 0.000344400
5.56071E+06 0.000344393
5.56614E+06 0.000344339
5.57158E+06 0.000344284
5.57702E+06 0.000344230
5.58000E+06 0.000344200
5.58150E+06 0.000344185
5.58225E+06 0.000344178
5.58225E+06 0.000344178
5.58247E+06 0.000344175
5.58793E+06 0.000344121
5.59000E+06 0.000344100
5.59339E+06 0.000344066
5.59887E+06 0.000344011
5.60000E+06 0.000344000
5.60435E+06 0.000343957
5.60810E+06 0.000343919
5.60984E+06 0.000343902
5.61000E+06 0.000343900
5.61534E+06 0.000343847
5.62000E+06 0.000343800
5.62085E+06 0.000343792
5.62636E+06 0.000343736
5.63189E+06 0.000343681
5.63410E+06 0.000343659
5.63742E+06 0.000343626
5.64000E+06 0.000343600
5.64296E+06 0.000343570
5.64680E+06 0.000343532
5.64752E+06 0.000343525
5.64753E+06 0.000343525
5.64851E+06 0.000343515
5.65406E+06 0.000343459
5.65963E+06 0.000343404
5.66000E+06 0.000343400
5.66520E+06 0.000343348
5.67000E+06 0.000343300
5.67078E+06 0.000343292
5.67637E+06 0.000343236
5.67680E+06 0.000343232
5.67757E+06 0.000343224
5.67757E+06 0.000343224
5.67990E+06 0.000343201
5.68068E+06 0.000343193
5.68197E+06 0.000343180
5.68757E+06 0.000343124
5.69000E+06 0.000343100
5.69319E+06 0.000343068
5.69881E+06 0.000343012
5.70000E+06 0.000343000
5.70444E+06 0.000342956
5.71008E+06 0.000342899
5.71572E+06 0.000342843
5.72000E+06 0.000342800
5.72120E+06 0.000342788
5.72138E+06 0.000342786
5.72705E+06 0.000342730
5.73272E+06 0.000342673
5.73840E+06 0.000342616
5.74000E+06 0.000342600
5.74409E+06 0.000342559
5.74979E+06 0.000342502
5.75000E+06 0.000342500
5.75549E+06 0.000342445
5.76000E+06 0.000342400
5.76121E+06 0.000342388
5.76693E+06 0.000342331
5.77060E+06 0.000342294
5.77266E+06 0.000342273
5.77841E+06 0.000342216
5.78000E+06 0.000342200
5.78415E+06 0.000342159
5.78991E+06 0.000342101
5.79568E+06 0.000342043
5.80000E+06 0.000342000
5.80146E+06 0.000341985
5.80724E+06 0.000341928
5.81303E+06 0.000341870
5.81740E+06 0.000341826
5.81883E+06 0.000341812
5.82000E+06 0.000341800
5.82464E+06 0.000341754
5.83046E+06 0.000341695
5.83480E+06 0.000341652
5.83629E+06 0.000341637
5.84000E+06 0.000341600
5.84213E+06 0.000341579
5.84797E+06 0.000341520
5.85285E+06 0.000341472
5.85676E+06 0.000341432
5.86000E+06 0.000341400
5.86067E+06 0.000341393
5.86458E+06 0.000341354
5.86850E+06 0.000341315
5.87242E+06 0.000341276
5.87635E+06 0.000341237
5.88000E+06 0.000341200
5.88028E+06 0.000341197
5.88421E+06 0.000341158
5.88815E+06 0.000341119
5.89209E+06 0.000341079
5.89604E+06 0.000341040
5.89999E+06 0.000341000
5.90000E+06 0.000341000
5.90394E+06 0.000340961
5.90790E+06 0.000340921
5.91186E+06 0.000340881
5.91583E+06 0.000340842
5.91980E+06 0.000340802
5.92000E+06 0.000340800
5.92377E+06 0.000340762
5.92775E+06 0.000340723
5.93173E+06 0.000340683
5.93572E+06 0.000340643
5.93971E+06 0.000340603
5.94000E+06 0.000340600
5.94370E+06 0.000340563
5.94770E+06 0.000340523
5.95170E+06 0.000340483
5.95571E+06 0.000340443
5.95972E+06 0.000340403
5.96000E+06 0.000340400
5.96373E+06 0.000340363
5.96876E+06 0.000340312
5.97479E+06 0.000340252
5.98000E+06 0.000340200
5.98084E+06 0.000340192
5.98690E+06 0.000340131
5.99296E+06 0.000340070
5.99903E+06 0.000340010
6.00000E+06 0.000340000
6.00512E+06 0.000339795
6.00990E+06 0.000339604
6.01121E+06 0.000339552
6.01731E+06 0.000339308
6.02000E+06 0.000339200
6.02342E+06 0.000339063
6.02954E+06 0.000338818
6.03567E+06 0.000338573
6.04000E+06 0.000338400
6.04181E+06 0.000338328
6.04796E+06 0.000338082
6.05412E+06 0.000337835
6.05670E+06 0.000337732
6.06000E+06 0.000337600
6.06028E+06 0.000337589
6.06646E+06 0.000337342
6.07265E+06 0.000337094
6.07884E+06 0.000336846
6.08505E+06 0.000336598
6.08660E+06 0.000336536
6.09126E+06 0.000336350
6.09749E+06 0.000336100
6.10000E+06 0.000336000
6.10372E+06 0.000335851
6.10996E+06 0.000335602
6.11622E+06 0.000335351
6.12000E+06 0.000335200
6.12248E+06 0.000335101
6.12875E+06 0.000334850
6.13503E+06 0.000334599
6.14000E+06 0.000334400
6.14133E+06 0.000334347
6.14763E+06 0.000334095
6.15394E+06 0.000333842
6.16000E+06 0.000333600
6.16026E+06 0.000333590
6.16765E+06 0.000333294
6.17610E+06 0.000332956
6.18000E+06 0.000332800
6.18458E+06 0.000332617
6.19307E+06 0.000332277
6.20000E+06 0.000332000
6.20159E+06 0.000331936
6.21011E+06 0.000331596
6.21340E+06 0.000331464
6.21528E+06 0.000331389
6.21528E+06 0.000331389
6.21866E+06 0.000331254
6.22000E+06 0.000331200
6.22210E+06 0.000331116
6.22722E+06 0.000330911
6.23581E+06 0.000330568
6.23610E+06 0.000330556
6.24000E+06 0.000330400
6.24441E+06 0.000330224
6.25000E+06 0.000330000
6.25302E+06 0.000329879
6.26000E+06 0.000329600
6.26166E+06 0.000329534
6.26730E+06 0.000329308
6.27000E+06 0.000329200
6.27031E+06 0.000329188
6.27250E+06 0.000329100
6.27330E+06 0.000329068
6.27330E+06 0.000329068
6.27870E+06 0.000328852
6.27898E+06 0.000328841
6.28000E+06 0.000328800
6.28055E+06 0.000328778
6.28055E+06 0.000328778
6.28180E+06 0.000328728
6.28262E+06 0.000328695
6.28263E+06 0.000328695
6.28550E+06 0.000328580
6.28985E+06 0.000328406
6.29000E+06 0.000328400
6.29420E+06 0.000328232
6.29856E+06 0.000328058
6.30000E+06 0.000328000
6.30292E+06 0.000327883
6.30630E+06 0.000327748
6.30729E+06 0.000327708
6.31000E+06 0.000327600
6.31166E+06 0.000327534
6.31604E+06 0.000327358
6.32000E+06 0.000327200
6.32042E+06 0.000327183
6.32480E+06 0.000327008
6.32919E+06 0.000326832
6.33359E+06 0.000326656
6.33799E+06 0.000326480
6.34000E+06 0.000326400
6.34239E+06 0.000326304
6.34680E+06 0.000326128
6.35121E+06 0.000325952
6.35308E+06 0.000325877
6.35330E+06 0.000325868
6.35563E+06 0.000325775
6.36000E+06 0.000325600
6.36005E+06 0.000325598
6.36448E+06 0.000325421
6.36891E+06 0.000325244
6.37000E+06 0.000325200
6.37335E+06 0.000325066
6.37779E+06 0.000324888
6.38000E+06 0.000324800
6.38224E+06 0.000324710
6.38669E+06 0.000324532
6.38820E+06 0.000324472
6.39114E+06 0.000324354
6.39560E+06 0.000324176
6.40000E+06 0.000324000
6.40007E+06 0.000323997
6.40453E+06 0.000323819
6.40901E+06 0.000323640
6.41349E+06 0.000323460
6.41797E+06 0.000323281
6.42000E+06 0.000323200
6.42246E+06 0.000323102
6.42695E+06 0.000322922
6.43145E+06 0.000322742
6.43595E+06 0.000322562
6.44000E+06 0.000322400
6.44046E+06 0.000322382
6.44497E+06 0.000322201
6.44948E+06 0.000322021
6.45401E+06 0.000321840
6.45853E+06 0.000321659
6.46000E+06 0.000321600
6.46306E+06 0.000321478
6.46440E+06 0.000321424
6.46987E+06 0.000321205
6.47896E+06 0.000320842
6.48000E+06 0.000320800
6.48807E+06 0.000320477
6.49720E+06 0.000320112
6.50000E+06 0.000320000
6.50230E+06 0.000319908
6.50634E+06 0.000319746
6.51551E+06 0.000319380
6.52450E+06 0.000319020
6.52470E+06 0.000319012
6.53390E+06 0.000318644
6.54000E+06 0.000318400
6.54313E+06 0.000318275
6.55238E+06 0.000317905
6.56000E+06 0.000317600
6.56164E+06 0.000317534
6.57093E+06 0.000317163
6.57290E+06 0.000317084
6.57376E+06 0.000317050
6.58000E+06 0.000316800
6.58023E+06 0.000316791
6.58955E+06 0.000316418
6.59260E+06 0.000316296
6.59890E+06 0.000316044
6.60000E+06 0.000316000
6.60826E+06 0.000315670
6.61765E+06 0.000315294
6.62000E+06 0.000315200
6.62705E+06 0.000314918
6.63648E+06 0.000314541
6.64000E+06 0.000314400
6.64592E+06 0.000314163
6.65302E+06 0.000313879
6.65776E+06 0.000313690
6.66250E+06 0.000313500
6.66725E+06 0.000313310
6.67000E+06 0.000313200
6.67200E+06 0.000313120
6.67230E+06 0.000313108
6.67322E+06 0.000313071
6.67676E+06 0.000312930
6.68000E+06 0.000312800
6.68152E+06 0.000312739
6.68629E+06 0.000312548
6.69000E+06 0.000312400
6.69106E+06 0.000312358
6.69584E+06 0.000312166
6.70063E+06 0.000311975
6.70541E+06 0.000311784
6.70890E+06 0.000311644
6.71000E+06 0.000311600
6.71021E+06 0.000311592
6.71070E+06 0.000311572
6.71501E+06 0.000311400
6.71981E+06 0.000311208
6.72000E+06 0.000311200
6.72462E+06 0.000311015
6.72944E+06 0.000310822
6.73000E+06 0.000310800
6.73425E+06 0.000310630
6.73908E+06 0.000310437
6.74000E+06 0.000310400
6.74391E+06 0.000310244
6.74995E+06 0.000310002
6.75000E+06 0.000310000
6.75092E+06 0.000309963
6.75092E+06 0.000309963
6.75722E+06 0.000309711
6.76000E+06 0.000309600
6.76450E+06 0.000309420
6.77178E+06 0.000309129
6.77300E+06 0.000309080
6.77909E+06 0.000308836
6.78000E+06 0.000308800
6.78640E+06 0.000308544
6.79040E+06 0.000308384
6.79372E+06 0.000308251
6.79440E+06 0.000308224
6.79444E+06 0.000308223
6.80000E+06 0.000308000
6.80106E+06 0.000307958
6.80840E+06 0.000307664
6.81576E+06 0.000307370
6.82000E+06 0.000307200
6.82314E+06 0.000307074
6.83052E+06 0.000306779
6.83792E+06 0.000306483
6.84000E+06 0.000306400
6.84532E+06 0.000306187
6.85274E+06 0.000305890
6.85780E+06 0.000305688
6.85970E+06 0.000305612
6.85971E+06 0.000305612
6.86000E+06 0.000305600
6.86018E+06 0.000305593
6.86762E+06 0.000305295
6.87508E+06 0.000304997
6.88254E+06 0.000304698
6.89003E+06 0.000304399
6.89752E+06 0.000304099
6.90502E+06 0.000303799
6.91254E+06 0.000303498
6.92000E+06 0.000303200
6.92007E+06 0.000303197
6.92761E+06 0.000302896
6.93220E+06 0.000302712
6.93223E+06 0.000302711
6.93517E+06 0.000302593
6.93740E+06 0.000302504
6.94000E+06 0.000302400
6.94274E+06 0.000302290
6.95000E+06 0.000302000
6.95032E+06 0.000301987
6.95190E+06 0.000301924
6.95192E+06 0.000301923
6.95791E+06 0.000301684
6.96000E+06 0.000301600
6.96551E+06 0.000301380
6.97313E+06 0.000301075
6.98000E+06 0.000300800
6.98076E+06 0.000300770
6.98840E+06 0.000300464
6.99606E+06 0.000300158
7.00000E+06 0.000300000
7.00150E+06 0.000299865
7.00372E+06 0.000299665
7.01140E+06 0.000298974
7.01910E+06 0.000298281
7.02000E+06 0.000298200
7.02680E+06 0.000297588
7.03452E+06 0.000296893
7.04000E+06 0.000296400
7.04225E+06 0.000296198
7.04960E+06 0.000295536
7.04999E+06 0.000295501
7.05775E+06 0.000294803
7.06000E+06 0.000294600
7.06682E+06 0.000293986
7.07720E+06 0.000293052
7.08000E+06 0.000292800
7.08760E+06 0.000292116
7.09190E+06 0.000291729
7.09385E+06 0.000291554
7.09386E+06 0.000291553
7.09803E+06 0.000291177
7.10000E+06 0.000291000
7.10730E+06 0.000290343
7.10732E+06 0.000290341
7.10848E+06 0.000290237
7.10980E+06 0.000290118
7.11570E+06 0.000289587
7.11896E+06 0.000289294
7.12000E+06 0.000289200
7.12700E+06 0.000288570
7.12701E+06 0.000288569
7.12946E+06 0.000288349
7.13500E+06 0.000287850
7.13740E+06 0.000287634
7.13998E+06 0.000287402
7.14000E+06 0.000287400
7.15052E+06 0.000286453
7.16000E+06 0.000285600
7.16109E+06 0.000285502
7.16190E+06 0.000285429
7.17168E+06 0.000284549
7.17670E+06 0.000284097
7.17674E+06 0.000284093
7.18230E+06 0.000283593
7.19293E+06 0.000282636
7.20000E+06 0.000282000
7.20360E+06 0.000281676
7.21400E+06 0.000280740
7.21428E+06 0.000280715
7.21720E+06 0.000280452
7.22000E+06 0.000280200
7.22499E+06 0.000279751
7.23573E+06 0.000278784
7.24000E+06 0.000278400
7.24514E+06 0.000277937
7.25322E+06 0.000277210
7.26000E+06 0.000276600
7.26132E+06 0.000276481
7.26170E+06 0.000276447
7.26610E+06 0.000276051
7.26943E+06 0.000275751
7.27755E+06 0.000275021
7.28000E+06 0.000274800
7.28569E+06 0.000274288
7.29384E+06 0.000273554
7.30000E+06 0.000273000
7.30200E+06 0.000272820
7.31018E+06 0.000272084
7.31837E+06 0.000271347
7.32658E+06 0.000270608
7.33480E+06 0.000269868
7.34000E+06 0.000269400
7.34303E+06 0.000269127
7.35128E+06 0.000268385
7.35954E+06 0.000267641
7.36000E+06 0.000267600
7.36781E+06 0.000266897
7.37610E+06 0.000266151
7.38000E+06 0.000265800
7.38441E+06 0.000265403
7.39272E+06 0.000264655
7.40000E+06 0.000264000
7.40105E+06 0.000263906
7.40940E+06 0.000263154
7.41776E+06 0.000262402
7.42000E+06 0.000262200
7.42613E+06 0.000261648
7.43452E+06 0.000260893
7.44000E+06 0.000260400
7.44292E+06 0.000260137
7.45134E+06 0.000259379
7.46000E+06 0.000258600
7.46259E+06 0.000258367
7.47668E+06 0.000257099
7.48000E+06 0.000256800
7.49081E+06 0.000255827
7.50000E+06 0.000255000
7.50498E+06 0.000254552
7.51460E+06 0.000253686
7.51919E+06 0.000253273
7.52000E+06 0.000253200
7.53345E+06 0.000251990
7.54000E+06 0.000251400
7.54774E+06 0.000250703
7.55000E+06 0.000250500
7.56208E+06 0.000249413
7.57645E+06 0.000248120
7.57880E+06 0.000247908
7.58000E+06 0.000247800
7.59087E+06 0.000246822
7.60000E+06 0.000246000
7.60533E+06 0.000245520
7.61983E+06 0.000244215
7.62000E+06 0.000244200
7.62640E+06 0.000243624
7.63437E+06 0.000242907
7.64000E+06 0.000242400
7.64710E+06 0.000241761
7.64711E+06 0.000241760
7.64895E+06 0.000241595
7.64900E+06 0.000241590
7.66000E+06 0.000240600
7.66358E+06 0.000240278
7.67825E+06 0.000238958
7.68000E+06 0.000238800
7.68200E+06 0.000238620
7.68300E+06 0.000238530
7.68440E+06 0.000238404
7.68441E+06 0.000238404
7.69296E+06 0.000237634
7.70000E+06 0.000237000
7.70771E+06 0.000236306
7.71860E+06 0.000235326
7.72000E+06 0.000235200
7.72250E+06 0.000234975
7.73734E+06 0.000233639
7.74000E+06 0.000233400
7.75222E+06 0.000232300
7.76000E+06 0.000231600
7.76715E+06 0.000230957
7.78000E+06 0.000229800
7.78211E+06 0.000229610
7.79712E+06 0.000228259
7.80000E+06 0.000228000
7.80330E+06 0.000227703
7.81218E+06 0.000226904
7.82000E+06 0.000226200
7.83484E+06 0.000224864
7.84000E+06 0.000224400
7.86000E+06 0.000222600
7.86522E+06 0.000222130
7.89577E+06 0.000219381
7.90000E+06 0.000219000
7.90750E+06 0.000218325
7.92000E+06 0.000217200
7.92650E+06 0.000216615
7.94000E+06 0.000215400
7.95741E+06 0.000213833
7.96000E+06 0.000213600
7.96760E+06 0.000212916
7.98000E+06 0.000211800
7.98850E+06 0.000211035
8.00000E+06 0.000210000
8.01978E+06 0.000209209
8.03000E+06 0.000208800
8.05124E+06 0.000207950
8.06000E+06 0.000207600
8.07180E+06 0.000207128
8.08000E+06 0.000206800
8.08020E+06 0.000206792
8.08288E+06 0.000206685
8.10000E+06 0.000206000
8.11472E+06 0.000205411
8.12000E+06 0.000205200
8.14000E+06 0.000204400
8.14674E+06 0.000204130
8.16000E+06 0.000203600
8.17610E+06 0.000202956
8.17895E+06 0.000202842
8.21136E+06 0.000201546
8.21900E+06 0.000201240
8.21901E+06 0.000201240
8.22000E+06 0.000201200
8.24000E+06 0.000200400
8.24396E+06 0.000200242
8.26000E+06 0.000199600
8.27676E+06 0.000198930
8.28000E+06 0.000198800
8.30000E+06 0.000198000
8.30975E+06 0.000197610
8.32000E+06 0.000197200
8.34294E+06 0.000196282
8.36000E+06 0.000195600
8.37633E+06 0.000194947
8.40000E+06 0.000194000
8.40993E+06 0.000193603
8.42000E+06 0.000193200
8.44372E+06 0.000192251
8.46000E+06 0.000191600
8.47773E+06 0.000190891
8.48000E+06 0.000190800
8.50000E+06 0.000190000
8.51193E+06 0.000189523
8.52000E+06 0.000189200
8.54000E+06 0.000188400
8.54635E+06 0.000188146
8.55680E+06 0.000187728
8.56000E+06 0.000187600
8.58000E+06 0.000186800
8.58098E+06 0.000186761
8.58490E+06 0.000186604
8.60000E+06 0.000186000
8.61582E+06 0.000185367
8.62000E+06 0.000185200
8.62830E+06 0.000184868
8.64000E+06 0.000184400
8.65087E+06 0.000183965
8.66000E+06 0.000183600
8.68000E+06 0.000182800
8.68614E+06 0.000182554
8.70000E+06 0.000182000
8.71630E+06 0.000181348
8.71631E+06 0.000181347
8.72162E+06 0.000181135
8.74000E+06 0.000180400
8.74530E+06 0.000180188
8.75733E+06 0.000179707
8.76000E+06 0.000179600
8.77000E+06 0.000179200
8.78000E+06 0.000178800
8.79325E+06 0.000178270
8.80000E+06 0.000178000
8.82000E+06 0.000177200
8.82940E+06 0.000176824
8.85100E+06 0.000175960
8.85100E+06 0.000175960
8.86577E+06 0.000175369
8.89870E+06 0.000174052
8.90237E+06 0.000173905
8.93919E+06 0.000172432
8.97625E+06 0.000170950
8.98000E+06 0.000170800
8.98180E+06 0.000170728
9.00000E+06 0.000170000
9.01354E+06 0.000171625
9.05106E+06 0.000176127
9.08882E+06 0.000180658
9.12681E+06 0.000185217
9.13010E+06 0.000185612
9.16505E+06 0.000189806
9.20353E+06 0.000194424
9.22500E+06 0.000197000
9.22502E+06 0.000197002
9.24225E+06 0.000199070
9.28122E+06 0.000203746
9.32043E+06 0.000208452
9.32450E+06 0.000208940
9.33860E+06 0.000210632
9.35001E+06 0.000212001
9.36980E+06 0.000214376
9.38966E+06 0.000216759
9.40959E+06 0.000219151
9.42957E+06 0.000221548
9.45967E+06 0.000225160
9.50000E+06 0.000230000
9.50003E+06 0.000230004
9.54065E+06 0.000234878
9.57510E+06 0.000239012
9.58153E+06 0.000239784
9.62268E+06 0.000244722
9.66409E+06 0.000249691
9.69880E+06 0.000253856
9.70577E+06 0.000254692
9.74773E+06 0.000259728
9.78996E+06 0.000264795
9.80000E+06 0.000266000
9.81260E+06 0.000267512
9.83246E+06 0.000269895
9.87525E+06 0.000275030
9.93995E+06 0.000282794
1.00000E+07 0.000290000
1.00272E+07 0.000290816
1.01157E+07 0.000293471
1.02053E+07 0.000296159
1.02961E+07 0.000298883
1.03460E+07 0.000300380
1.03881E+07 0.000301643
1.04814E+07 0.000304442
1.05000E+07 0.000305000
1.05200E+07 0.000305600
1.05400E+07 0.000306200
1.05760E+07 0.000307280
1.05800E+07 0.000307400
1.06000E+07 0.000308000
1.06718E+07 0.000310154
1.07690E+07 0.000313070
1.08000E+07 0.000314000
1.08500E+07 0.000315500
1.08675E+07 0.000316025
1.08800E+07 0.000316400
1.09000E+07 0.000317000
1.09400E+07 0.000318200
1.09530E+07 0.000318590
1.09600E+07 0.000318800
1.09674E+07 0.000319022
1.09800E+07 0.000319400
1.10000E+07 0.000320000
1.10686E+07 0.000327546
1.11600E+07 0.000337600
1.11713E+07 0.000338843
1.12000E+07 0.000342000
1.12754E+07 0.000350294
1.13000E+07 0.000353000
1.13800E+07 0.000361800
1.13810E+07 0.000361910
1.14000E+07 0.000364000
1.14400E+07 0.000368400
1.14600E+07 0.000370600
1.14800E+07 0.000372800
1.14881E+07 0.000373691
1.15600E+07 0.000381600
1.15967E+07 0.000385637
1.17069E+07 0.000397759
1.17250E+07 0.000399750
1.18187E+07 0.000410057
1.18250E+07 0.000410750
1.19000E+07 0.000419000
1.19321E+07 0.000422531
1.19750E+07 0.000427250
1.20000E+07 0.000430000
1.20040E+07 0.000430120
1.20471E+07 0.000431413
1.21000E+07 0.000433000
1.21638E+07 0.000434914
1.22823E+07 0.000438469
1.24024E+07 0.000442072
1.24450E+07 0.000443350
1.25000E+07 0.000445000
1.25244E+07 0.000445732
1.26482E+07 0.000449446
1.27738E+07 0.000453214
1.29014E+07 0.000457042
1.30000E+07 0.000460000
1.30308E+07 0.000459384
1.31623E+07 0.000456754
1.32957E+07 0.000454086
1.34313E+07 0.000451374
1.34500E+07 0.000451000
1.35689E+07 0.000448622
1.37086E+07 0.000445828
1.38506E+07 0.000442988
1.39000E+07 0.000442000
1.39947E+07 0.000440106
1.40000E+07 0.000440000
1.41412E+07 0.000437882
1.42899E+07 0.000435652
1.44411E+07 0.000433384
1.45000E+07 0.000432500
1.45120E+07 0.000432320
1.45947E+07 0.000431080
1.47500E+07 0.000428750
1.47507E+07 0.000428740
1.49094E+07 0.000426359
1.50000E+07 0.000425000
1.50705E+07 0.000423943
1.52344E+07 0.000421484
1.54009E+07 0.000418987
1.55703E+07 0.000416446
1.57424E+07 0.000413864
1.57500E+07 0.000413750
1.59175E+07 0.000411238
1.60000E+07 0.000410000
1.60955E+07 0.000408727
1.61320E+07 0.000408240
1.62765E+07 0.000406313
1.64606E+07 0.000403859
1.66479E+07 0.000401361
1.68385E+07 0.000398820
1.70000E+07 0.000396667
1.70324E+07 0.000396235
1.72296E+07 0.000393605
1.74304E+07 0.000390928
1.75000E+07 0.000390000
1.76347E+07 0.000384073
1.77500E+07 0.000379000
1.77940E+07 0.000377064
1.77970E+07 0.000376932
1.78426E+07 0.000374926
1.80000E+07 0.000368000
1.80543E+07 0.000365611
1.81470E+07 0.000361532
1.82698E+07 0.000356129
1.84892E+07 0.000346475
1.87127E+07 0.000336641
1.89403E+07 0.000326627
1.90000E+07 0.000324000
1.91720E+07 0.000316432
1.92500E+07 0.000313000
1.94081E+07 0.000306044
1.95000E+07 0.000302000
1.96487E+07 0.000295457
2.00000E+07 0.000280000
2.00000E+07 0.00000
2.01512E+07 0.00000
2.06042E+07 0.00000
2.10000E+07 0.00000
2.20000E+07 0.00000
2.30000E+07 0.00000
2.40000E+07 0.00000
2.48970E+07 0.00000
2.50000E+07 0.00000
2.60000E+07 0.00000
2.61795E+07 0.00000
2.64639E+07 0.00000
2.65345E+07 0.00000
2.70000E+07 0.00000
2.71925E+07 0.00000
2.74715E+07 0.00000
2.80000E+07 0.00000
2.85194E+07 0.00000
2.90000E+07 0.00000
2.92624E+07 0.00000
2.94080E+07 0.00000
3.00000E+07 0.00000
3.09984E+07 0.00000
3.10000E+07 0.00000
3.15900E+07 0.00000
3.20000E+07 0.00000
3.23171E+07 0.00000
3.29207E+07 0.00000
3.30000E+07 0.00000
3.40000E+07 0.00000
3.48812E+07 0.00000
3.50000E+07 0.00000
3.51570E+07 0.00000
3.53239E+07 0.00000
3.60000E+07 0.00000
3.70000E+07 0.00000
3.74690E+07 0.00000
3.74860E+07 0.00000
3.80000E+07 0.00000
3.80003E+07 0.00000
3.90000E+07 0.00000
3.92809E+07 0.00000
3.98980E+07 0.00000
4.00000E+07 0.00000
4.10000E+07 0.00000
4.10936E+07 0.00000
4.11255E+07 0.00000
4.20000E+07 0.00000
4.20052E+07 0.00000
4.30000E+07 0.00000
4.40000E+07 0.00000
4.40058E+07 0.00000
4.48035E+07 0.00000
4.50000E+07 0.00000
4.50816E+07 0.00000
4.53581E+07 0.00000
4.57324E+07 0.00000
4.60000E+07 0.00000
4.60621E+07 0.00000
4.65449E+07 0.00000
4.67752E+07 0.00000
4.70000E+07 0.00000
4.80000E+07 0.00000
4.90000E+07 0.00000
4.95280E+07 0.00000
5.00000E+07 0.00000
5.08320E+07 0.00000
5.10000E+07 0.00000
5.17139E+07 0.00000
5.19292E+07 0.00000
5.20000E+07 0.00000
5.30000E+07 0.00000
5.40000E+07 0.00000
5.48247E+07 0.00000
5.50000E+07 0.00000
5.57170E+07 0.00000
5.60000E+07 0.00000
5.66164E+07 0.00000
5.70000E+07 0.00000
5.80000E+07 0.00000
5.90000E+07 0.00000
6.00000E+07 0.00000
6.06696E+07 0.00000
6.10000E+07 0.00000
6.20000E+07 0.00000
6.22088E+07 0.00000
6.30000E+07 0.00000
6.40000E+07 0.00000
6.50000E+07 0.00000
6.53070E+07 0.00000
6.60000E+07 0.00000
6.70000E+07 0.00000
6.80000E+07 0.00000
6.90000E+07 0.00000
7.00000E+07 0.00000
7.10000E+07 0.00000
7.16193E+07 0.00000
7.20000E+07 0.00000
7.30000E+07 0.00000
7.40000E+07 0.00000
7.50000E+07 0.00000
7.60000E+07 0.00000
7.70000E+07 0.00000
7.80000E+07 0.00000
7.90000E+07 0.00000
8.00000E+07 0.00000
8.10000E+07 0.00000
8.20000E+07 0.00000
8.30000E+07 0.00000
8.40000E+07 0.00000
8.50000E+07 0.00000
8.60000E+07 0.00000
8.70000E+07 0.00000
8.80000E+07 0.00000
8.90000E+07 0.00000
9.00000E+07 0.00000
9.10000E+07 0.00000
9.20000E+07 0.00000
9.30000E+07 0.00000
9.40000E+07 0.00000
9.50000E+07 0.00000
9.60000E+07 0.00000
9.70000E+07 0.00000
9.80000E+07 0.00000
9.90000E+07 0.00000
1.00000E+08 0.00000
1.02000E+08 0.00000
1.04000E+08 0.00000
1.06000E+08 0.00000
1.08000E+08 0.00000
1.10000E+08 0.00000
1.12000E+08 0.00000
1.14000E+08 0.00000
1.16000E+08 0.00000
1.18000E+08 0.00000
1.20000E+08 0.00000
1.22000E+08 0.00000
1.24000E+08 0.00000
1.26000E+08 0.00000
1.28000E+08 0.00000
1.30000E+08 0.00000
1.32000E+08 0.00000
1.34000E+08 0.00000
1.36000E+08 0.00000
1.38000E+08 0.00000
1.40000E+08 0.00000
1.42000E+08 0.00000
1.44000E+08 0.00000
1.46000E+08 0.00000
1.48000E+08 0.00000
1.50000E+08 0.00000