Ca-40(n,tot) ENDF/B-VII.1
Energy(eV) XS(b)
1.00000E-05 23.6394
1.25000E-05 21.4627
1.50000E-05 19.8560
2.00000E-05 17.6007
2.75000E-05 15.4547
3.50000E-05 14.0424
4.25000E-05 13.0229
5.00000E-05 12.2424
6.25000E-05 11.2689
7.50000E-05 10.5504
0.000100000 9.54177
0.000125000 8.85346
0.000150000 8.34537
0.000200000 7.63217
0.000275000 6.95356
0.000350000 6.50696
0.000425000 6.18454
0.000500000 5.93772
0.000625000 5.62990
0.000750000 5.40267
0.00100000 5.08372
0.00125000 4.86605
0.00150000 4.70538
0.00200000 4.47985
0.00275000 4.26525
0.00350000 4.12403
0.00425000 4.02207
0.00500000 3.94402
0.00625000 3.84667
0.00750000 3.77482
0.0100000 3.67396
0.0125000 3.60513
0.0150000 3.55432
0.0200000 3.48300
0.0253000 3.43187
0.0314750 3.38947
0.0376500 3.35799
0.0500000 3.31355
0.0625000 3.28277
0.0750000 3.26004
0.100000 3.22814
0.125000 3.20638
0.150000 3.19031
0.200000 3.16775
0.275000 3.14628
0.350000 3.13216
0.500000 3.11414
0.750000 3.09720
1.00000 3.08710
1.50000 3.07509
2.00000 3.06792
2.75000 3.06108
3.50000 3.05656
5.00000 3.05075
7.50000 3.04520
10.0000 3.04182
15.0000 3.03766
20.0000 3.03502
27.5000 3.03229
35.0000 3.03031
50.0000 3.02736
75.0000 3.02375
100.000 3.02083
150.000 3.01582
200.000 3.01130
275.000 3.00492
350.000 2.99880
500.000 2.98693
750.000 2.96772
1000.00 2.94893
1500.00 2.91217
2000.00 2.87630
2440.41 2.84536
2660.62 2.83011
2770.72 2.82254
2825.77 2.81880
2853.30 2.81707
2867.06 2.81670
2873.94 2.81847
2877.38 2.82669
2879.10 2.85658
2879.53 2.88406
2879.96 2.95126
2880.18 3.02841
2880.39 3.19283
2880.61 3.63342
2880.72 4.17002
2880.82 5.24492
2880.91 6.70432
2881.00 7.67789
2881.09 6.70451
2881.18 5.24515
2881.25 4.45142
2881.32 3.95436
2881.46 3.43775
2881.60 3.19988
2881.74 3.07439
2882.02 2.95433
2882.31 2.90157
2882.87 2.85748
2883.44 2.84008
2885.69 2.82149
2890.21 2.81613
2899.25 2.81419
2917.32 2.81262
2953.46 2.81007
2989.60 2.80761
3007.67 2.80646
3016.71 2.80614
3021.23 2.80694
3023.49 2.81069
3024.62 2.82266
3025.18 2.85216
3025.46 2.90302
3025.75 3.07114
3026.00 3.33724
3026.26 3.07117
3026.45 2.93271
3026.65 2.87549
3027.05 2.83463
3027.85 2.81495
3029.44 2.80779
3032.62 2.80545
3038.98 2.80443
3051.70 2.80341
3077.15 2.80165
3128.04 2.79819
3229.82 2.79131
3433.38 2.77766
3840.50 2.75067
4247.62 2.72412
4451.18 2.71100
4552.97 2.70448
4603.86 2.70125
4629.30 2.69971
4642.02 2.69923
4648.38 2.70009
4651.57 2.70450
4653.16 2.71969
4653.95 2.76225
4654.35 2.85099
4654.55 2.97545
4654.75 3.27438
4655.00 3.85021
4655.26 3.27444
4655.42 3.00430
4655.59 2.87846
4655.93 2.77874
4656.60 2.72638
4657.95 2.70634
4660.64 2.69996
4666.03 2.69788
4676.80 2.69673
4698.35 2.69524
4741.44 2.69247
4827.63 2.68700
5000.00 2.67613
5489.46 2.64563
5978.91 2.61569
6468.36 2.58628
6713.09 2.57177
6835.46 2.56459
6896.64 2.56109
6927.23 2.55969
6942.52 2.56035
6950.17 2.56597
6954.00 2.58873
6955.91 2.67095
6956.39 2.74710
6956.86 2.93532
6957.10 3.15430
6957.34 3.62963
6957.46 4.10601
6957.58 4.94963
6957.70 6.60884
6957.76 8.05362
6957.82 10.1244
6957.91 14.6654
6958.00 17.6932
6958.09 14.6665
6958.18 10.1259
6958.25 7.94032
6958.31 6.49409
6958.43 4.83936
6958.56 4.01786
6958.68 3.56669
6958.93 3.11588
6959.18 2.90981
6959.68 2.73342
6960.18 2.66252
6962.17 2.58597
6966.16 2.56446
6974.13 2.55837
6990.09 2.55599
7021.99 2.55376
7085.80 2.54994
7213.41 2.54250
7468.64 2.52775
7979.09 2.49866
9000.00 2.44197
10000.0 2.38825
10416.3 2.36645
10624.5 2.35600
10728.6 2.35229
10780.6 2.35657
10793.7 2.36316
10806.7 2.38319
10813.2 2.41165
10819.7 2.49219
10822.9 2.60319
10824.6 2.71283
10826.2 2.90868
10827.8 3.31836
10828.6 3.71076
10829.4 4.39727
10829.8 4.95998
10830.3 5.78863
10830.7 7.08012
10831.1 9.18244
10831.5 13.1762
10831.7 16.4984
10831.9 21.5686
10832.1 30.3411
10832.3 45.2564
10832.5 74.1878
10832.6 98.8421
10832.7 137.984
10832.8 216.985
10833.0 273.307
10833.2 217.048
10833.3 137.631
10833.5 90.5250
10833.6 61.7290
10833.7 44.3304
10833.9 33.3290
10834.2 20.9942
10834.4 14.7096
10834.7 11.1144
10835.0 8.87723
10835.6 6.36312
10836.1 5.06091
10836.7 4.30179
10837.8 3.49819
10838.9 3.10426
10840.0 2.88243
10842.3 2.65466
10844.5 2.54602
10846.8 2.48584
10851.2 2.42494
10860.2 2.38016
10869.1 2.36389
10887.0 2.35151
10904.9 2.34651
10976.5 2.33881
11119.8 2.33041
11406.2 2.31553
11979.2 2.28659
13125.0 2.23008
15416.7 2.12048
17708.3 2.00759
18854.2 1.93559
19427.1 1.87796
19713.6 1.82851
19856.8 1.78979
20000.0 1.72970
20106.6 1.65501
20160.0 1.59794
20213.3 1.51575
20239.9 1.45923
20266.6 1.38643
20293.3 1.28914
20319.9 1.15272
20333.3 1.06195
20346.6 0.949229
20359.9 0.806714
20373.2 0.624676
20386.6 0.399453
20393.2 0.283185
20399.9 0.203568
20403.2 0.208538
20406.6 0.285262
20409.9 0.507849
20411.6 0.719975
20413.2 1.04218
20414.9 1.53804
20416.6 2.30579
20418.2 3.51872
20419.9 5.47753
20421.6 8.80901
20423.2 14.6880
20424.9 25.7705
20425.7 34.6901
20426.6 47.0456
20428.3 85.7129
20430.0 121.154
20431.7 108.908
20433.4 76.0444
20434.8 56.4853
20436.1 43.1941
20437.4 34.0958
20438.7 27.8133
20441.4 19.9308
20444.0 15.4066
20446.7 12.5391
20449.3 10.6005
20454.6 8.19521
20459.9 6.78368
20465.2 5.87098
20470.5 5.23550
20475.8 4.77147
20486.4 4.14082
20497.0 3.73490
20507.6 3.45288
20518.2 3.24617
20539.3 2.96353
20560.5 2.77984
20581.7 2.65100
20602.9 2.55567
20645.2 2.42383
20687.6 2.33688
20729.9 2.27504
20772.3 2.22867
20857.0 2.16340
20941.7 2.11923
21111.1 2.06214
21280.5 2.02565
21449.9 1.99937
21788.8 1.96209
22466.4 1.91297
23144.1 1.87677
25854.8 1.76710
31276.1 1.59278
36697.4 1.44305
39408.0 1.37355
40763.3 1.33793
41102.2 1.32793
41441.0 1.31604
41610.4 1.30818
41779.8 1.29651
41864.5 1.28692
41949.3 1.26999
41991.6 1.25439
42034.0 1.22526
42055.1 1.19797
42076.3 1.14792
42086.9 1.10318
42097.5 1.02822
42102.8 0.970717
42108.1 0.901236
42110.7 0.881742
42113.4 0.952194
42114.7 1.12004
42116.0 1.59034
42116.7 2.11025
42117.3 3.06548
42118.0 4.91457
42118.7 8.60837
42119.3 15.3940
42120.0 21.9243
42120.3 22.1125
42120.7 20.2096
42121.3 14.6279
42122.1 10.2393
42122.8 7.63731
42123.5 6.02752
42124.2 5.00628
42125.6 3.80849
42127.0 3.16256
42129.8 2.50116
42132.6 2.17610
42138.2 1.86315
42143.8 1.71383
42155.1 1.57081
42166.3 1.50215
42188.8 1.43539
42211.3 1.40264
42256.3 1.37001
42301.3 1.35341
42391.2 1.33595
42481.2 1.32625
42661.1 1.31453
42841.0 1.30663
43200.8 1.29465
43560.7 1.28461
45000.0 1.24964
45624.9 1.23542
45937.3 1.22842
46093.5 1.22496
46171.6 1.22326
46210.7 1.22255
46230.2 1.22272
46240.0 1.22482
46244.9 1.23340
46247.3 1.26387
46248.5 1.35852
46249.1 1.59300
46249.4 2.01560
46249.7 3.45554
46250.0 5.68970
46250.3 3.45539
46250.7 1.75444
46251.2 1.43593
46252.1 1.29144
46253.9 1.24161
46257.6 1.22675
46264.9 1.22256
46279.6 1.22118
46308.9 1.22027
46367.4 1.21891
46484.6 1.21631
46719.0 1.21117
47187.7 1.20099
48125.1 1.18090
50000.0 1.14173
51283.9 1.11565
51925.8 1.10312
52246.8 1.09827
52407.3 1.10141
52447.4 1.10714
52487.5 1.12469
52507.6 1.14938
52527.7 1.21784
52537.7 1.30901
52542.7 1.39654
52547.7 1.54872
52552.7 1.85013
52555.3 2.12521
52557.8 2.57694
52560.3 3.40081
52561.5 4.09221
52562.8 5.12424
52564.0 6.78012
52565.3 9.57781
52566.5 14.7035
52567.8 24.5362
52568.9 38.6179
52570.0 48.0143
52571.1 38.6366
52572.2 24.5611
52573.5 14.7829
52574.7 9.68727
52575.9 6.88228
52577.2 5.22219
52578.4 4.17278
52579.6 3.47223
52582.1 2.62949
52584.5 2.16374
52587.0 1.88050
52591.9 1.56886
52596.8 1.41054
52601.8 1.31934
52611.6 1.22374
52631.3 1.15109
52651.0 1.12422
52690.3 1.10391
52729.7 1.09611
52887.2 1.08604
53202.1 1.07801
53831.9 1.06519
55091.6 1.04067
57611.0 0.992879
60130.5 0.946318
61390.2 0.923418
62020.0 0.912051
62334.9 0.906388
62492.4 0.903570
62571.1 0.902193
62610.5 0.901629
62630.2 0.901832
62640.0 0.903834
62644.9 0.912133
62647.4 0.943295
62648.6 1.05148
62649.2 1.38495
62649.6 2.19459
62649.7 3.49682
62649.9 7.56801
62650.0 14.2348
62650.1 7.56670
62650.3 3.23656
62650.5 1.96775
62650.9 1.28148
62651.6 1.01723
62653.0 0.932979
62655.8 0.909121
62661.5 0.902696
62672.9 0.900865
62695.6 0.900047
62741.1 0.899130
62832.0 0.897476
63013.8 0.894215
63377.5 0.887715
64104.9 0.874757
64832.3 0.861850
65195.9 0.855416
65377.8 0.852214
65468.7 0.850655
65514.2 0.850040
65536.9 0.850377
65548.3 0.853045
65553.9 0.863759
65556.8 0.902233
65558.2 1.02486
65558.9 1.34246
65559.3 1.94963
65559.6 4.24162
65559.9 7.62187
65560.2 4.22888
65560.5 2.14635
65560.8 1.47419
65561.4 1.08189
65562.6 0.921789
65565.0 0.869249
65569.7 0.854195
65579.3 0.850020
65598.4 0.848649
65636.6 0.847713
65713.0 0.846299
65865.8 0.843586
66171.4 0.838194
66782.5 0.827433
68004.9 0.805956
70449.6 0.763036
75339.1 0.675653
80228.5 0.579604
82673.3 0.521381
83895.6 0.486259
84506.8 0.467054
84812.4 0.459445
84965.2 0.462806
85041.6 0.484673
85060.7 0.504815
85079.8 0.555326
85089.3 0.617690
85098.9 0.772243
85103.7 0.959241
85108.4 1.39985
85110.8 1.89510
85113.2 2.92909
85114.4 3.93802
85115.6 5.67567
85116.8 8.96805
85117.4 11.7394
85118.0 15.6424
85118.9 24.3453
85119.9 29.8575
85120.9 23.5523
85121.8 14.6531
85122.6 9.81790
85123.4 6.85897
85124.2 5.01468
85124.9 3.82215
85126.5 2.45896
85128.1 1.75495
85131.2 1.09886
85134.3 0.820478
85140.6 0.598546
85146.8 0.516858
85159.3 0.459432
85171.8 0.441066
85221.8 0.427141
85321.7 0.424204
85521.5 0.417742
85921.3 0.399598
86321.0 0.377623
86720.7 0.352273
87120.5 0.324291
87520.2 0.299017
87720.0 0.294401
87919.9 0.308535
88119.8 0.376044
88219.7 0.459813
88269.7 0.526820
88294.6 0.569915
88307.1 0.595555
88313.4 0.613802
88316.5 0.639558
88318.1 0.704912
88318.8 0.873011
88319.6 2.66495
88319.9 4.70899
88320.2 2.66464
88321.0 0.876970
88321.7 0.712612
88323.3 0.654356
88326.4 0.642523
88332.7 0.652032
88345.1 0.682209
88370.1 0.754161
88420.0 0.946089
88470.0 1.23138
88519.9 1.67037
88569.8 2.37714
88619.8 3.58450
88669.7 5.81246
88694.7 7.65291
88707.1 8.86529
88713.4 9.57116
88716.5 9.97332
88718.1 10.2540
88718.8 10.5831
88719.2 11.0836
88719.6 13.0375
88719.9 15.7788
88720.2 13.1094
88720.9 10.9099
88721.6 10.7358
88723.0 10.8211
88725.7 11.1775
88731.3 12.0013
88742.4 13.9038
88764.7 18.8832
88827.7 40.7714
88839.9 44.2281
88869.9 48.4316
88899.9 47.5132
88915.1 44.4197
88972.1 25.9153
89015.2 16.6513
89058.3 11.4952
89101.3 8.48962
89144.4 6.60949
89187.5 5.35782
89230.6 4.48119
89316.7 3.35925
89402.9 2.68842
89489.0 2.25100
89661.4 1.72566
89833.7 1.42752
90006.0 1.23806
90350.6 1.01334
90695.2 0.885208
91039.8 0.802196
91729.1 0.699599
92418.3 0.636731
93107.6 0.592555
94486.1 0.530762
97243.0 0.448663
98621.5 0.415692
100000 0.384772
100646 0.371365
100807 0.369412
100968 0.371916
101049 0.379988
101130 0.408650
101170 0.451349
101190 0.494253
101210 0.570814
101231 0.727093
101241 0.872419
101251 1.11233
101261 1.55726
101266 1.93653
101271 2.49922
101276 3.41847
101281 4.96161
101286 7.79322
101291 13.2315
101296 21.1988
101300 26.7004
101305 21.6246
101309 13.7647
101314 8.20084
101319 5.33277
101324 3.74518
101329 2.80012
101334 2.19924
101339 1.79579
101349 1.30651
101359 1.03303
101369 0.864840
101389 0.676886
101409 0.579243
101429 0.521719
101469 0.459452
101509 0.427664
101549 0.408879
101629 0.388002
101789 0.369292
101949 0.359842
102269 0.348261
102589 0.339732
103229 0.325259
103870 0.311975
106430 0.261865
111551 0.164975
116672 0.0748731
119233 0.0432501
120513 0.0376113
121153 0.0400715
121473 0.0473874
121553 0.0540737
121633 0.0727668
121673 0.0985394
121713 0.169439
121733 0.262446
121753 0.498661
121763 0.780123
121768 1.02452
121773 1.40637
121778 2.04579
121783 3.21694
121785 4.18749
121788 5.61341
121790 7.75793
121793 10.9809
121797 17.6855
121800 22.0561
121804 17.7214
121807 11.1201
121811 6.63398
121815 4.28077
121819 2.95231
121823 2.15085
121826 1.63665
121830 1.28931
121838 0.865851
121845 0.628289
121853 0.482073
121868 0.318966
121899 0.185565
121929 0.133255
121990 0.0928329
122051 0.0779644
122172 0.0678578
122294 0.0656587
122780 0.0739199
123754 0.118769
124727 0.204824
125213 0.271388
125457 0.312828
125578 0.335981
125639 0.348281
125669 0.354829
125685 0.358996
125692 0.364278
125696 0.378383
125698 0.422948
125699 0.562361
125700 2.30769
125700 4.25085
125700 2.30406
125701 0.561212
125702 0.428843
125704 0.380500
125708 0.367585
125715 0.365438
125730 0.367670
125760 0.373929
125819 0.387231
125938 0.415432
126175 0.478539
126650 0.637298
127125 0.853923
127362 0.991337
127481 1.06900
127541 1.11044
127570 1.13206
127585 1.14391
127592 1.15334
127596 1.17084
127598 1.22760
127599 1.39643
127599 1.91909
127600 5.46074
127600 9.73719
127600 5.42986
127601 1.59924
127601 1.30473
127603 1.19928
127605 1.16861
127610 1.16386
127620 1.16922
127640 1.18378
127680 1.21448
127760 1.27888
127919 1.41950
128238 1.75589
128875 2.73746
129513 4.38618
130150 7.17875
130975 13.1320
131800 18.4843
132149 18.5399
132324 18.0070
132411 17.6355
132454 17.4469
132476 17.4208
132487 17.6462
132490 17.8790
132493 18.3957
132495 19.8895
132497 21.9472
132498 26.3382
132499 31.7421
132500 35.5907
132501 31.8671
132502 26.4384
132503 23.0399
132504 21.1177
132506 19.1629
132509 17.9409
132513 17.5466
132517 17.3650
132532 17.0985
132561 16.8782
132621 16.5217
132739 15.7996
132976 14.2926
133450 11.4272
134072 8.49352
134694 6.46714
135316 5.07751
135937 4.10213
137181 2.86960
138425 2.14860
139668 1.68560
140912 1.36647
142156 1.13507
142777 1.04314
143088 1.00244
143244 0.983534
143321 0.975868
143360 0.980132
143380 1.01729
143389 1.16902
143394 1.69292
143397 3.09039
143398 5.79112
143399 9.25173
143399 16.7205
143400 27.4224
143400 32.7871
143401 25.4146
143401 17.0327
143402 9.52711
143402 6.44165
143403 3.52332
143405 1.90929
143410 1.27167
143418 1.05749
143436 0.990915
143470 0.968114
143539 0.954923
143677 0.939188
143954 0.914931
144507 0.897660
144783 0.929257
144921 0.973353
145059 1.06015
145198 1.24140
145267 1.40748
145336 1.67632
145405 2.14385
145474 3.04106
145509 3.81854
145543 5.00353
145578 6.87468
145612 9.85099
145656 15.5305
145700 19.4609
145744 15.8357
145788 10.2348
145834 6.48716
145880 4.43738
145927 3.27014
145973 2.56354
146019 2.10656
146065 1.79654
146157 1.41396
146250 1.19512
146342 1.05705
146526 0.895849
146711 0.805099
146895 0.746078
147265 0.670370
148003 0.580620
148741 0.518271
150218 0.421211
150956 0.380083
151325 0.364319
151417 0.364501
151509 0.375345
151556 0.395768
151602 0.458486
151625 0.545784
151648 0.777404
151659 1.07036
151665 1.33612
151671 1.76078
151677 2.52782
151682 4.03548
151685 5.42797
151688 7.67985
151691 11.5147
151694 17.8849
151697 28.6808
151700 35.6719
151703 28.6428
151706 18.3002
151709 11.2328
151713 7.35525
151716 5.15603
151719 3.85942
151722 2.99444
151725 2.41075
151732 1.70833
151738 1.30714
151744 1.06392
151757 0.789608
151782 0.564419
151808 0.475335
151858 0.403881
151909 0.374953
152011 0.349408
152112 0.336537
152315 0.320492
152518 0.308406
153329 0.268722
154953 0.200428
156576 0.140393
157387 0.113278
157793 0.100148
157996 0.0929655
158097 0.0882867
158148 0.0860011
158174 0.0936334
158186 0.144440
158193 0.342088
158196 0.929641
158197 2.15239
158198 3.81997
158199 7.52519
158200 15.5434
158201 8.10791
158202 4.66433
158203 2.89040
158204 1.42181
158207 0.618444
158212 0.274368
158223 0.154172
158245 0.112912
158288 0.0973671
158376 0.0894928
158550 0.0825846
158899 0.0729426
159597 0.0581656
160295 0.0504643
160470 0.0514632
160644 0.0575477
160731 0.0669803
160819 0.0936272
160862 0.129469
160906 0.225296
160928 0.348666
160939 0.463904
160949 0.659247
160960 1.02972
160966 1.35699
160971 1.86347
160977 2.74142
160982 4.36205
160985 5.80044
160988 7.90719
160990 11.1876
160993 16.3238
160997 26.1296
161000 32.6699
161004 26.0758
161007 16.2587
161011 9.61148
161015 6.07722
161018 4.11862
161022 2.95433
161026 2.21620
161030 1.72250
161037 1.12764
161045 0.798523
161053 0.598336
161068 0.378215
161098 0.202461
161129 0.135568
161189 0.0854380
161250 0.0675029
161372 0.0551819
161493 0.0518492
161737 0.0524581
161980 0.0571296
162466 0.0749983
162952 0.105874
163438 0.154752
163925 0.229791
164411 0.344084
164654 0.423089
164776 0.475898
164837 0.535017
164852 0.578033
164867 0.686304
164875 0.823549
164882 1.16729
164886 1.57433
164890 2.47644
164892 3.39442
164894 5.06932
164895 8.47315
164896 11.3024
164897 15.5993
164899 24.7042
164900 31.0894
164901 25.0351
164903 16.0116
164904 10.9668
164905 7.65949
164908 4.32799
164910 2.85247
164912 2.09124
164917 1.37643
164922 1.06468
164932 0.807053
164941 0.706877
164960 0.633296
164980 0.610610
165056 0.614368
165210 0.688727
165517 0.897217
166131 1.57285
166439 2.11362
166746 2.87077
167053 3.93867
167360 5.43514
167980 10.0278
168600 14.2159
169220 12.7123
169840 8.79901
170400 6.16829
170959 4.48545
171519 3.40435
172079 2.68157
173198 1.80898
174317 1.31775
175437 1.00833
176556 0.796748
177676 0.642723
178235 0.580579
178515 0.555937
178655 0.563127
178690 0.582841
178725 0.645341
178742 0.732494
178760 0.963502
178769 1.25180
178777 1.91563
178782 2.63676
178786 4.00043
178788 5.22304
178791 7.13234
178793 10.2350
178795 15.0703
178797 23.9504
178800 30.0413
178803 24.2799
178805 15.4820
178807 11.3818
178809 8.44816
178811 6.47998
178812 5.19318
178816 3.55320
178819 2.63680
178826 1.71637
178833 1.29006
178847 0.917930
178861 0.765681
178889 0.641495
178918 0.591651
178974 0.549643
179030 0.530421
179255 0.495373
179704 0.454138
180603 0.388710
182400 0.286721
184197 0.209840
185096 0.179162
185546 0.168820
185770 0.177686
185826 0.191841
185883 0.233671
185911 0.291018
185939 0.444936
185953 0.643240
185967 1.13271
185974 1.70440
185981 2.95206
185984 4.20371
185988 6.45680
185990 8.35784
185991 10.9588
185993 15.0399
185995 20.8537
185997 33.1928
186000 41.5403
186003 33.1781
186005 20.7968
186007 15.0243
186009 11.1304
186012 6.62407
186015 4.33730
186019 3.05558
186026 1.75604
186033 1.16808
186046 0.658660
186060 0.453776
186087 0.291266
186115 0.229906
186169 0.182940
186224 0.164966
186443 0.142627
186880 0.126922
187755 0.104961
189504 0.0712074
191253 0.0485901
193003 0.0375748
194752 0.0398575
196501 0.0584770
198251 0.0983285
200000 0.167114
201457 0.255098
202913 0.382473
204370 0.566151
205826 0.833030
207283 1.22743
208740 1.82528
209468 2.23969
210196 2.76675
210560 3.08966
210925 3.48092
211107 3.73205
211198 3.89100
211289 4.09742
211380 4.40845
211425 4.64803
211471 5.00521
211516 5.59866
211562 6.73692
211585 7.75707
211607 9.38601
211630 12.1659
211653 16.9976
211676 24.7667
211700 30.0141
211724 24.9744
211747 17.3072
211764 13.5427
211781 11.0559
211797 9.40405
211814 8.28257
211847 6.93953
211880 6.22091
211913 5.80671
211947 5.55612
212013 5.30410
212079 5.21393
212146 5.20041
212279 5.28043
212544 5.60981
212810 6.03114
213653 7.66385
214074 8.59471
214285 9.08222
214391 9.35382
214417 9.44288
214443 9.57667
214456 9.69959
214470 9.95616
214476 10.2396
214483 10.8547
214486 11.4854
214489 12.6671
214493 15.2091
214494 17.5271
214496 21.4001
214498 28.1792
214500 32.8231
214502 27.8428
214504 20.9640
214506 16.6418
214508 14.2627
214512 11.9317
214516 10.9618
214520 10.4844
214528 10.0621
214535 9.89560
214551 9.78478
214567 9.76553
214629 9.85296
214754 10.1180
215003 10.6480
215502 11.5645
216500 12.3284
218345 9.49843
220190 5.55995
220985 4.36191
221184 4.13104
221382 3.95790
221482 3.92257
221532 3.93623
221581 3.99385
221631 4.14567
221656 4.29676
221681 4.55097
221705 5.01736
221718 5.40408
221730 5.98316
221743 6.90084
221755 8.46287
221767 11.3503
221774 13.7029
221780 16.9729
221790 24.1274
221800 28.0555
221810 22.1013
221820 14.4273
221828 10.5092
221836 8.13158
221844 6.65036
221852 5.69491
221868 4.60953
221884 4.05512
221899 3.74011
221915 3.54583
221947 3.32912
221978 3.21555
222010 3.14689
222073 3.06600
222137 3.01822
222200 2.98841
222326 2.97837
222453 3.08007
222579 3.47990
222642 3.98197
222706 5.01766
222737 5.95354
222769 7.42753
222800 9.83051
222832 13.7866
222871 21.3418
222910 26.9761
222949 22.6943
222988 15.4740
223015 11.9592
223041 9.63998
223055 8.87531
223068 8.47341
223075 8.53965
223081 9.05985
223085 9.73361
223088 10.9831
223091 13.4738
223093 15.6715
223095 18.6945
223097 25.5738
223100 29.6195
223103 24.5532
223105 17.2482
223108 12.5062
223111 9.90803
223114 8.46146
223117 7.60927
223122 6.63162
223128 6.09790
223140 5.49778
223151 5.12925
223174 4.62934
223197 4.27300
223220 3.99240
223242 3.76477
223288 3.41403
223379 2.95688
223471 2.66988
223653 2.31821
223836 2.09731
224201 1.80499
224566 1.59965
226028 1.11661
226758 1.00711
227489 1.01092
227854 1.10754
228219 1.40230
228402 1.76035
228585 2.53680
228676 3.30182
228767 4.64190
228859 7.20927
228950 12.4592
229025 19.7196
229100 24.6519
229175 19.7486
229250 12.5189
229332 7.65758
229414 5.10154
229496 3.69463
229578 2.86229
229742 1.98739
229906 1.57089
230234 1.21525
230562 1.08816
231218 1.04536
231874 1.11044
233185 1.39522
233841 1.59913
234169 1.71752
234333 1.78671
234415 1.84569
234456 1.96044
234466 2.05872
234477 2.30108
234482 2.59140
234487 3.25500
234489 3.97884
234492 5.32359
234495 8.48216
234496 11.6584
234497 16.6955
234499 25.4395
234500 31.5292
234502 25.4162
234503 16.6679
234505 9.72575
234507 6.53453
234509 4.83489
234511 3.93546
234515 3.00668
234519 2.58129
234526 2.21869
234534 2.07556
234565 1.92851
234627 1.90982
234752 1.95049
235000 2.05648
235437 2.26210
235874 2.48773
236748 2.99973
238495 4.27485
240242 5.86110
241116 6.73593
241553 7.18496
241771 7.42847
241826 7.50809
241881 7.63331
241908 7.75510
241935 8.02523
241949 8.33086
241962 8.98691
241969 9.65513
241976 10.8433
241983 13.2095
241986 15.2729
241990 18.3110
241995 25.0187
242000 29.5701
242005 25.3733
242010 18.9339
242016 14.2585
242022 11.8500
242028 10.5058
242034 9.72614
242045 8.89781
242057 8.50163
242081 8.15729
242104 8.02454
242151 7.94191
242197 7.93691
242291 7.98916
242384 8.06629
242758 8.41804
243505 9.11825
245000 10.2929
247500 11.2122
250000 10.8278
255000 8.37694
255497 8.12172
255746 8.00473
255870 7.97949
255902 8.00080
255933 8.08385
255948 8.20339
255964 8.51285
255972 8.88746
255979 9.71376
255983 10.5733
255987 12.1700
255991 15.5172
255993 18.4924
255995 23.1287
255997 32.3881
256000 38.3646
256003 32.3536
256005 23.0842
256007 18.8413
256009 16.0005
256012 12.6866
256016 10.9904
256019 10.0340
256026 9.06741
256033 8.61809
256046 8.22503
256060 8.06316
256087 7.92729
256114 7.86772
256224 7.76670
256442 7.64662
256879 7.43141
257752 7.02216
259500 6.27162
262994 5.02580
266488 4.05753
268235 3.65086
269109 3.46284
269327 3.41876
269546 3.38107
269655 3.37183
269764 3.39154
269819 3.44065
269873 3.59297
269901 3.79201
269914 3.97310
269928 4.26285
269942 4.76942
269955 5.73217
269962 6.56132
269969 7.82278
269976 9.80310
269982 12.9311
269991 19.0603
270000 23.3393
270009 19.5919
270018 13.6844
270023 11.0629
270029 9.20025
270039 6.95886
270050 5.75744
270061 5.05637
270071 4.61243
270082 4.31940
270104 3.96443
270125 3.76400
270146 3.63971
270189 3.49622
270275 3.36667
270361 3.30401
270532 3.23293
270704 3.18450
271047 3.10651
271390 3.03718
272763 2.78537
275507 2.33217
278252 1.91359
279624 1.70895
280311 1.60659
280654 1.55672
280825 1.53756
280911 1.54913
280954 1.62936
280975 1.90896
280986 2.69115
280991 4.35234
280994 6.72822
280997 12.4584
280998 18.8897
281000 23.3172
281002 18.8068
281003 12.3556
281006 7.35687
281008 4.93375
281012 3.02567
281021 2.02817
281038 1.65101
281074 1.53028
281144 1.48843
281284 1.45918
281564 1.41407
282125 1.32560
283248 1.14204
284370 0.944680
285492 0.727226
286614 0.484052
287736 0.225483
288297 0.118097
288577 0.0878572
288718 0.0841139
288858 0.0915555
288998 0.114092
289138 0.157004
289279 0.227719
289419 0.336643
289559 0.500172
289699 0.750044
289770 0.935410
289840 1.22360
289875 1.47399
289910 1.94974
289927 2.41823
289945 3.29310
289954 4.06120
289962 5.24706
289971 7.21188
289980 10.4527
289990 16.2151
290000 20.2714
290010 16.8544
290020 11.3841
290030 7.82788
290040 5.80419
290050 4.63151
290060 3.92466
290079 3.17440
290099 2.83859
290127 2.65356
290155 2.62488
290212 2.76399
290324 3.36200
290550 5.18271
291000 9.58988
291225 10.7110
291451 10.6504
291901 8.79033
292410 6.66931
292918 5.24303
293172 4.73925
293426 4.36046
293553 4.23840
293681 4.22486
293744 4.32225
293808 4.60945
293839 4.91097
293871 5.43163
293903 6.36550
293935 8.05889
293967 10.8534
294000 12.8407
294033 11.1180
294065 8.35236
294095 6.65928
294124 5.63084
294154 4.99278
294183 4.57585
294242 4.07996
294301 3.79895
294419 3.48363
294537 3.29659
294773 3.05448
295009 2.88955
295245 2.77958
295363 2.75287
295481 2.76197
295599 2.84794
295658 2.95401
295717 3.15122
295776 3.54064
295806 3.88146
295835 4.41068
295865 5.28205
295894 6.82949
295924 9.83712
295939 12.3838
295953 16.0485
295977 24.3232
296000 29.8566
296023 24.3240
296047 16.0409
296062 12.2003
296078 9.59343
296109 6.56761
296140 5.03049
296170 4.16515
296201 3.63419
296232 3.28530
296294 2.86777
296356 2.63208
296418 2.48237
296541 2.30093
296665 2.18979
296788 2.10991
297035 1.99228
297282 1.90097
297529 1.82291
298023 1.68915
299012 1.47121
300000 1.29218
302425 0.944135
304850 0.670585
307275 0.445416
309700 0.266994
310913 0.200378
312125 0.154846
313338 0.138000
314550 0.161112
315763 0.240612
316975 0.400038
318188 0.672224
319400 1.10077
321150 2.10140
322900 3.66643
326400 7.69599
328150 8.90117
329900 9.07192
333400 7.69921
335662 6.59741
336228 6.34637
336794 6.12141
337076 6.03521
337218 6.01009
337359 6.01237
337501 6.07674
337571 6.16009
337642 6.31572
337713 6.61745
337783 7.25693
337819 7.85524
337854 8.83017
337890 10.5078
337925 13.4382
337962 18.3201
338000 21.7398
338038 18.6976
338075 13.8906
338102 11.4824
338129 9.87039
338156 8.79086
338182 8.04936
338236 7.13951
338290 6.62804
338343 6.30968
338397 6.09594
338504 5.82835
338611 5.66445
338718 5.54973
338932 5.38811
339147 5.26768
339361 5.16606
339789 4.98948
340647 4.68186
341504 4.40282
342361 4.14077
343218 3.89199
343646 3.77481
344075 3.67509
344289 3.64995
344396 3.65666
344503 3.69402
344611 3.80207
344664 3.91420
344718 4.10671
344771 4.45846
344825 5.15831
344852 5.77882
344878 6.74188
344905 8.28623
344932 10.7703
344966 15.6212
345000 19.2335
345034 16.5168
345068 11.8779
345100 8.94437
345132 7.19490
345164 6.12591
345195 5.44404
345259 4.66009
345322 4.24320
345386 3.99161
345449 3.82477
345576 3.61597
345703 3.48641
345830 3.39358
346084 3.25813
346338 3.15252
346592 3.05987
347100 2.88999
348116 2.55943
349132 2.20120
350148 1.78001
351163 1.25694
351671 0.954894
352179 0.666299
352433 0.570508
352687 0.571419
352814 0.639964
352941 0.782040
353068 1.02910
353195 1.42265
353396 2.47689
353598 4.23365
354000 9.29535
354202 11.1654
354403 11.8378
354806 10.8708
355074 9.77786
355341 8.78495
355876 7.29135
356411 6.30152
356945 5.61829
357480 5.12173
358015 4.74401
359085 4.20266
360154 3.82641
361224 3.54342
363363 3.13177
365502 2.83236
367641 2.59344
368711 2.48840
369781 2.39144
370315 2.34832
370850 2.31940
371118 2.32544
371251 2.34458
371385 2.38958
371519 2.49466
371586 2.59719
371652 2.76978
371719 3.08301
371786 3.71094
371820 4.27640
371853 5.16591
371886 6.62415
371920 9.04553
371960 13.5456
372000 16.8893
372040 14.3658
372080 10.0682
372107 7.98948
372134 6.55376
372187 4.86295
372241 3.98651
372294 3.48406
372348 3.17065
372401 2.96168
372508 2.70698
372615 2.56100
372722 2.46744
372936 2.35416
373150 2.28622
373364 2.23885
373792 2.17203
374220 2.12206
374648 2.07975
375504 2.00566
378928 1.74000
380640 1.59242
381495 1.50442
382351 1.39711
383207 1.25315
383635 1.15606
384063 1.02955
384491 0.853917
384705 0.736949
384919 0.591691
385133 0.410602
385347 0.198861
385454 0.102648
385561 0.0621134
385615 0.0956848
385668 0.201928
385722 0.431507
385775 0.863207
385831 1.65993
385888 2.92746
386000 6.39517
386057 7.59542
386113 7.95295
386226 7.13669
386334 6.01730
386441 5.13325
386549 4.49054
386657 4.02108
386872 3.39901
387087 3.01293
387302 2.75192
387517 2.56395
387948 2.31000
388378 2.14429
388809 2.02566
389670 1.86218
390530 1.74964
391391 1.66336
393113 1.53127
396557 1.33668
400000 1.17762
407720 0.854186
415440 0.514441
419300 0.324451
423160 0.130217
425090 0.0525006
426055 0.0304258
426538 0.0268922
427020 0.0303600
427503 0.0428576
427985 0.0669778
428468 0.106029
428950 0.164216
429433 0.246837
429915 0.360488
430880 0.714431
431910 1.35483
432940 2.34770
435000 4.92091
436030 5.71748
437060 5.86515
439120 5.06780
441544 3.93684
443967 3.13330
446390 2.58783
448814 2.20168
453661 1.68853
458507 1.35060
463354 1.09694
468201 0.886890
470625 0.790794
473048 0.697442
475471 0.605645
476077 0.585838
476683 0.578329
476986 0.593792
477138 0.616805
477289 0.664140
477441 0.767236
477516 0.864067
477592 1.02306
477668 1.30256
477743 1.83856
477781 2.29921
477819 2.99263
477857 4.07039
477895 5.74264
477947 9.25907
478000 11.9326
478053 10.0466
478105 6.72594
478144 4.96242
478183 3.78787
478222 3.00235
478261 2.46604
478339 1.80968
478417 1.44270
478495 1.21716
478573 1.06811
478728 0.887652
478884 0.784615
479040 0.718619
479352 0.638617
479663 0.590540
479975 0.556973
480598 0.509619
481811 0.445865
483023 0.394746
485449 0.304358
490299 0.144591
492724 0.0813477
493937 0.0593044
495150 0.0483845
495756 0.0489041
496362 0.0547632
496968 0.0673142
497575 0.0882678
498181 0.119789
498787 0.164612
500000 0.308800
500000 0.00159319
501300 0.902200
503200 1.51550
504900 2.39570
505700 3.11540
506500 4.21780
508200 5.58670
510000 4.49580
510700 4.11110
512100 3.07110
514100 2.33330
516600 1.80000
518500 1.52440
520000 1.47980
520300 1.44440
521100 1.43880
521500 1.72220
522000 1.35000
523800 1.21670
524600 1.20560
525300 1.68330
525700 1.14440
528000 0.926010
528900 0.844400
531300 0.961090
534600 0.733300
536600 0.900030
537200 1.67220
538000 1.18670
538500 0.883300
541300 0.700000
547500 0.677790
554000 0.566700
556600 0.777800
557900 0.950000
559100 2.62220
559500 1.10000
560400 0.744390
563500 0.677800
566400 0.733320
568500 0.933320
569000 1.25560
569900 2.47780
570600 1.21100
572400 0.894400
574900 1.09440
577200 1.31110
579900 1.41120
580200 1.53330
584300 2.01330
588000 2.70980
592000 3.60000
593700 4.28000
594300 5.35560
595600 4.24440
597200 4.29770
600000 4.69570
601200 4.84000
602900 4.90220
608000 4.68860
609600 4.60890
609800 5.04450
610700 4.52000
614700 4.20890
619100 3.64000
621200 3.59560
624100 3.12440
626600 2.56440
627900 2.68020
630600 1.96890
632300 1.47100
634300 0.742170
634600 1.24000
635800 2.59110
636900 4.24440
639200 3.38220
640200 4.15560
641200 5.97790
642600 3.84440
643600 3.23110
645100 2.82220
650300 2.32440
652100 2.22650
653200 2.69780
653800 2.13770
656400 1.89790
660000 1.73760
660100 1.71440
667400 1.42670
667900 1.73010
668500 1.35670
671800 0.718900
672700 0.928900
673900 1.28670
674500 1.85440
674900 2.81110
675300 3.50320
676200 4.07110
677200 3.22330
679000 2.51560
681300 2.07220
686000 1.69760
687100 1.59780
691900 1.48900
693400 1.82330
694000 2.53210
694700 3.41000
695300 2.22780
697000 1.80780
700000 1.56035
700300 1.53560
704900 1.27890
711800 1.19330
712900 1.91670
713600 1.30220
716300 1.03780
726100 0.913300
727900 1.36440
728100 1.40330
729700 0.952220
732800 0.843300
735600 0.983300
737200 1.69100
738200 2.50780
740500 1.15420
741500 1.58220
742300 2.02570
743200 2.65550
743900 3.52670
744700 3.95430
745400 3.57340
747400 2.75660
748600 2.03330
750500 1.40330
752800 1.11560
754300 1.05330
755400 1.21670
757700 2.17330
758300 1.57440
759300 1.09990
760100 0.866710
761001 0.836649
761500 0.820000
763800 0.983310
764700 1.39560
765400 1.10780
766500 1.17780
768500 1.50440
769700 1.92440
771200 2.60890
772900 3.59670
773300 3.93890
774100 4.09440
777200 3.66670
778400 3.33220
779600 3.05220
780600 2.87560
782800 2.25330
785200 1.83560
787800 1.44000
790200 1.14670
791600 1.44000
792800 1.86670
793400 2.44440
794000 3.77780
795100 2.74670
796700 2.21780
798400 1.92440
799700 1.80890
800000 2.06220
801100 1.73330
803300 1.48000
806900 1.19990
808900 1.11120
809400 1.24000
810300 1.04440
818800 0.671100
820800 0.808890
821700 1.06670
822700 1.64440
823500 2.24430
824100 2.57320
825000 2.82200
825700 2.33780
828000 1.55990
829000 1.43110
829400 1.54670
830800 1.24000
834100 0.928900
837300 0.742190
839300 0.911100
840400 1.20000
841300 1.73330
841800 2.33330
842900 1.92890
844100 1.53330
844900 1.25330
846100 1.15110
847600 1.12890
848300 1.34670
849500 1.14670
850700 1.22670
854200 1.38670
856900 1.80660
857700 2.08020
858100 2.50680
858800 2.04670
859800 1.96000
861400 2.21330
863500 2.68000
865800 3.39340
866900 3.86680
867500 3.32670
868900 2.46000
870400 1.68670
872100 1.01330
873500 1.28000
874300 1.61330
875200 1.39330
878300 1.90000
881100 2.44670
883300 3.06670
884100 3.59330
884800 4.17330
885700 3.64000
888900 3.50000
889600 3.72670
890200 3.87330
890900 3.97330
891700 3.85330
898600 3.64000
899000 3.53340
899700 3.90680
900000 3.71660
900100 3.65320
905000 3.38660
907100 3.82010
907600 4.12020
908100 4.82020
909200 4.17350
910700 3.78000
916700 3.22000
919800 3.00000
921200 3.08330
921600 3.04430
921900 2.82780
922300 3.08330
923100 3.32800
923600 3.55560
924100 3.98900
924700 3.28330
928000 2.65000
931900 2.44440
935800 2.16110
937200 2.19440
939800 2.42780
940800 2.77210
941500 3.22220
943300 2.79990
944200 3.03330
945400 3.93330
946100 3.07780
946800 2.55000
948100 2.09440
950400 1.83890
955500 1.49440
957200 1.51110
958200 1.72780
958800 2.21110
959300 2.57220
960000 2.07220
960800 1.61110
962000 1.40560
963700 1.24440
966600 1.25560
968300 1.37220
969100 1.58330
969900 1.91110
970700 2.52780
971700 3.17220
972600 3.42780
973600 3.59440
975300 3.24440
976100 3.23330
977300 2.98890
977800 3.02780
979600 2.54440
980100 2.59440
982200 2.20000
985400 1.90000
986200 1.94440
987200 1.78330
990400 1.62780
991700 1.82200
992600 2.53860
993300 3.41680
995000 1.82780
996000 1.52240
998100 1.20000
1.00000E+06 1.13560
1.00040E+06 1.12210
1.00240E+06 1.28890
1.00390E+06 1.93890
1.00510E+06 2.31670
1.00750E+06 3.42220
1.00790E+06 3.51670
1.00970E+06 3.44440
1.01080E+06 3.48890
1.01220E+06 3.26110
1.01620E+06 2.86110
1.01780E+06 3.21670
1.01840E+06 3.73330
1.01910E+06 4.38340
1.01980E+06 3.79440
1.02060E+06 3.17220
1.02270E+06 2.79440
1.02400E+06 2.70560
1.02510E+06 2.93890
1.02600E+06 2.51110
1.02800E+06 2.23890
1.03300E+06 1.93890
1.03490E+06 1.88890
1.03550E+06 1.78890
1.03710E+06 2.41660
1.03750E+06 2.89430
1.03800E+06 3.17780
1.03870E+06 2.88890
1.03990E+06 2.65000
1.04060E+06 2.90560
1.04130E+06 3.22230
1.04190E+06 2.83330
1.04240E+06 2.61080
1.04400E+06 2.42210
1.04530E+06 2.57210
1.04610E+06 2.93320
1.04720E+06 2.22220
1.04970E+06 1.82220
1.05470E+06 1.56110
1.05530E+06 1.40560
1.05730E+06 1.85560
1.05830E+06 2.17220
1.06010E+06 1.82780
1.06130E+06 2.21670
1.06240E+06 1.80000
1.06810E+06 1.43890
1.07010E+06 1.41110
1.07110E+06 1.50560
1.07200E+06 1.32780
1.07421E+06 1.20189
1.07590E+06 1.10560
1.08050E+06 0.877820
1.08180E+06 1.11110
1.08290E+06 1.70530
1.08380E+06 2.35560
1.08490E+06 1.77220
1.08550E+06 1.61110
1.08800E+06 1.63870
1.08920E+06 1.88860
1.08970E+06 1.83320
1.09050E+06 1.82010
1.09120E+06 1.68000
1.09270E+06 2.09500
1.09340E+06 2.38510
1.09380E+06 2.74000
1.09470E+06 3.34520
1.09540E+06 2.97510
1.09620E+06 2.80000
1.09840E+06 3.52500
1.09990E+06 3.28500
1.10150E+06 3.82000
1.10320E+06 3.57000
1.10930E+06 3.23500
1.11070E+06 3.36000
1.11130E+06 3.11000
1.12070E+06 2.50500
1.12400E+06 2.15500
1.12540E+06 2.46000
1.12620E+06 3.18500
1.12820E+06 3.53490
1.12900E+06 4.01520
1.13030E+06 3.01490
1.13140E+06 2.57510
1.13260E+06 2.19480
1.13320E+06 2.36020
1.13530E+06 2.29510
1.13560E+06 2.63990
1.13600E+06 2.98510
1.13680E+06 3.20010
1.13760E+06 2.72020
1.13850E+06 2.24000
1.13950E+06 1.90500
1.14090E+06 1.80500
1.14270E+06 2.36010
1.14360E+06 2.18500
1.14440E+06 2.37500
1.14520E+06 2.77000
1.14680E+06 2.26000
1.15570E+06 1.69500
1.15830E+06 1.82500
1.15950E+06 2.12000
1.16040E+06 2.37500
1.16130E+06 2.01000
1.16320E+06 1.81500
1.16550E+06 1.82500
1.16680E+06 2.08500
1.16980E+06 2.80500
1.17030E+06 2.52000
1.17090E+06 1.94500
1.17390E+06 1.53500
1.17830E+06 1.36990
1.17920E+06 1.60000
1.18120E+06 1.33000
1.18310E+06 1.62000
1.18700E+06 1.02000
1.19080E+06 2.30000
1.19120E+06 2.64000
1.19240E+06 2.40670
1.19360E+06 2.10000
1.19440E+06 1.79310
1.19620E+06 2.16670
1.19870E+06 2.79990
1.19990E+06 3.69330
1.20000E+06 3.75831
1.20110E+06 4.47340
1.20250E+06 5.28660
1.20320E+06 5.73990
1.20380E+06 4.56000
1.20460E+06 3.50000
1.20540E+06 2.65330
1.20630E+06 2.02000
1.20780E+06 1.47330
1.20920E+06 1.35330
1.21130E+06 1.63330
1.21200E+06 1.80000
1.21370E+06 2.52000
1.21420E+06 3.31970
1.21460E+06 4.46010
1.21530E+06 5.13320
1.21640E+06 4.22000
1.21790E+06 3.89330
1.21880E+06 3.88000
1.22240E+06 3.46000
1.22780E+06 3.01999
1.22960E+06 3.23329
1.23090E+06 3.62689
1.23170E+06 3.99329
1.23390E+06 3.11999
1.23520E+06 3.33999
1.23790E+06 2.48669
1.23900E+06 2.31329
1.23980E+06 2.35999
1.24110E+06 2.31999
1.24230E+06 2.55349
1.24290E+06 2.83999
1.24390E+06 3.44679
1.24470E+06 3.05999
1.24600E+06 2.83329
1.24830E+06 3.17329
1.24890E+06 3.69329
1.24980E+06 4.31329
1.25000E+06 4.07669
1.25060E+06 3.36669
1.25180E+06 2.63989
1.25240E+06 2.39999
1.25390E+06 2.11329
1.25680E+06 2.39329
1.25860E+06 2.51999
1.26010E+06 2.39339
1.26120E+06 2.67329
1.26240E+06 3.39329
1.26360E+06 3.85979
1.26540E+06 3.04669
1.26640E+06 3.28669
1.26750E+06 4.01329
1.26930E+06 2.64679
1.27110E+06 2.06669
1.27230E+06 2.03999
1.27480E+06 1.82000
1.27820E+06 1.68000
1.27940E+06 1.72000
1.28040E+06 1.82440
1.28160E+06 2.08910
1.28240E+06 2.36500
1.28330E+06 2.42720
1.28390E+06 2.59440
1.28520E+06 2.84710
1.28710E+06 2.60610
1.28790E+06 2.76170
1.28880E+06 3.04170
1.28970E+06 3.38370
1.29060E+06 4.16560
1.29150E+06 3.57440
1.29210E+06 2.78500
1.29400E+06 2.24440
1.29550E+06 1.99170
1.29640E+06 1.96830
1.29690E+06 1.86330
1.29880E+06 2.01490
1.30030E+06 2.19780
1.30190E+06 2.21330
1.30420E+06 1.94500
1.30510E+06 2.10060
1.30690E+06 1.97220
1.30880E+06 2.14330
1.31010E+06 2.64500
1.31180E+06 1.82060
1.31330E+06 1.61060
1.31440E+06 1.91390
1.31620E+06 2.49720
1.31810E+06 2.83560
1.31960E+06 2.51280
1.32130E+06 2.24830
1.32290E+06 2.18610
1.32600E+06 1.95670
1.32900E+06 2.12000
1.33120E+06 1.90610
1.33300E+06 2.25610
1.33420E+06 2.73440
1.33520E+06 2.33390
1.33620E+06 2.04610
1.33720E+06 1.89820
1.33870E+06 2.32220
1.34070E+06 1.73130
1.34250E+06 1.52110
1.34510E+06 1.83630
1.34570E+06 2.15500
1.34650E+06 2.08500
1.34800E+06 2.64520
1.34860E+06 3.02990
1.35020E+06 2.54000
1.35240E+06 2.07720
1.35470E+06 2.05780
1.35600E+06 2.28330
1.35860E+06 1.79720
1.35990E+06 1.78170
1.36060E+06 1.75500
1.36243E+06 1.65146
1.36820E+06 1.32500
1.37060E+06 1.54000
1.37280E+06 2.06500
1.37550E+06 2.91990
1.37660E+06 2.43500
1.38080E+06 1.87000
1.38240E+06 1.98520
1.38340E+06 1.79500
1.38640E+06 1.63020
1.38710E+06 1.91000
1.38880E+06 2.08500
1.39060E+06 2.57500
1.39270E+06 1.73000
1.39470E+06 1.56000
1.39840E+06 1.47500
1.40000E+06 1.40833
1.40200E+06 1.32500
1.40560E+06 1.44500
1.40710E+06 1.90000
1.40810E+06 2.17000
1.41030E+06 1.63000
1.41430E+06 1.35500
1.41910E+06 1.20000
1.42150E+06 1.30500
1.42330E+06 1.53000
1.42390E+06 1.95500
1.42540E+06 2.54500
1.42710E+06 1.73000
1.42840E+06 1.67000
1.42960E+06 2.19980
1.43150E+06 2.97500
1.43280E+06 3.76000
1.43630E+06 2.41000
1.43830E+06 1.86520
1.43940E+06 1.67000
1.44110E+06 1.68000
1.44280E+06 1.38000
1.44390E+06 1.53000
1.44490E+06 1.80000
1.44550E+06 2.46000
1.44670E+06 3.59480
1.44880E+06 3.07500
1.45080E+06 2.25510
1.45150E+06 1.90470
1.45210E+06 1.78500
1.45400E+06 1.91500
1.45520E+06 2.13510
1.45599E+06 2.77312
1.45650E+06 3.18500
1.45770E+06 4.70030
1.45790E+06 4.80000
1.45888E+06 4.23864
1.45900E+06 4.16990
1.45990E+06 3.36500
1.46280E+06 2.38220
1.46660E+06 1.87500
1.46840E+06 2.16220
1.47150E+06 2.26000
1.47303E+06 1.88254
1.47420E+06 1.59390
1.47630E+06 1.50830
1.47750E+06 1.60000
1.47800E+06 1.81400
1.47980E+06 2.23560
1.48240E+06 1.51440
1.48410E+06 1.38000
1.48500E+06 1.49000
1.48820E+06 1.56940
1.49100E+06 2.12560
1.49390E+06 1.39830
1.49730E+06 2.11330
1.50000E+06 1.37830
1.50060E+06 1.21500
1.50410E+06 1.43500
1.50650E+06 1.35560
1.51000E+06 1.53890
1.51180E+06 1.39830
1.51420E+06 2.24169
1.51640E+06 2.40669
1.51930E+06 2.06439
1.52040E+06 2.27229
1.52280E+06 2.33329
1.52610E+06 2.93829
1.52890E+06 4.47219
1.53020E+06 5.82879
1.53120E+06 5.98789
1.53230E+06 5.15669
1.53400E+06 3.34189
1.53540E+06 2.62059
1.53860E+06 2.35189
1.53960E+06 1.82609
1.54120E+06 1.41669
1.54210E+06 1.27609
1.54490E+06 1.41059
1.54540E+06 1.61219
1.54780E+06 1.49610
1.54990E+06 1.85060
1.55270E+06 2.68170
1.55450E+06 3.18280
1.55590E+06 2.92610
1.55920E+06 2.79780
1.56150E+06 2.90780
1.56320E+06 3.09120
1.56407E+06 3.41006
1.56480E+06 3.67760
1.56690E+06 4.11180
1.56870E+06 3.54330
1.57090E+06 2.21110
1.57270E+06 2.33330
1.57460E+06 3.26830
1.57720E+06 2.88940
1.57970E+06 3.08480
1.58110E+06 3.41500
1.58580E+06 2.54720
1.58810E+06 2.17430
1.59040E+06 1.99110
1.59280E+06 2.47390
1.59680E+06 3.76320
1.59790E+06 3.28680
1.59950E+06 3.32930
1.60000E+06 3.30656
1.60100E+06 3.26110
1.60330E+06 3.49440
1.60480E+06 3.75000
1.60710E+06 3.56109
1.60930E+06 3.72219
1.61170E+06 2.89999
1.61340E+06 2.96669
1.61540E+06 3.26109
1.61760E+06 3.10569
1.61800E+06 2.91109
1.62030E+06 2.65558
1.62290E+06 2.95548
1.62610E+06 3.45558
1.62860E+06 2.29998
1.63040E+06 2.72218
1.63100E+06 3.06098
1.63280E+06 3.38888
1.63610E+06 3.01108
1.63840E+06 2.42778
1.64240E+06 2.09458
1.64320E+06 2.16108
1.64540E+06 1.86108
1.64770E+06 2.09998
1.64920E+06 3.11678
1.65110E+06 4.11088
1.65160E+06 4.32217
1.65630E+06 3.14437
1.65900E+06 2.94998
1.66120E+06 2.94438
1.66270E+06 3.21658
1.66450E+06 3.05558
1.66690E+06 3.13888
1.66940E+06 3.08888
1.67050E+06 2.89998
1.67220E+06 3.12218
1.67480E+06 3.16108
1.67600E+06 3.04438
1.67760E+06 3.26108
1.67950E+06 3.95558
1.68140E+06 4.73909
1.68230E+06 4.31668
1.68470E+06 2.76109
1.68640E+06 2.07779
1.69040E+06 2.47219
1.69510E+06 2.16110
1.70440E+06 2.72220
1.70580E+06 2.03889
1.70860E+06 1.81109
1.71110E+06 2.11669
1.71430E+06 2.64438
1.71630E+06 2.12778
1.71840E+06 2.22238
1.71910E+06 2.45558
1.72100E+06 2.92778
1.72550E+06 3.54438
1.72690E+06 3.56107
1.72850E+06 3.75557
1.73160E+06 4.48317
1.73400E+06 4.18887
1.73560E+06 4.64437
1.73960E+06 6.03887
1.74110E+06 5.19447
1.74450E+06 3.09997
1.74590E+06 2.88327
1.74830E+06 3.05557
1.75000E+06 2.90717
1.75390E+06 2.56657
1.75710E+06 2.73327
1.75900E+06 3.45557
1.76140E+06 4.72227
1.76380E+06 5.36087
1.76580E+06 4.35557
1.76890E+06 2.89437
1.77090E+06 2.56667
1.77340E+06 2.84437
1.77620E+06 2.08328
1.77880E+06 2.09438
1.78350E+06 2.91108
1.78700E+06 1.94438
1.78990E+06 2.61099
1.79260E+06 3.45559
1.79570E+06 2.30559
1.79740E+06 2.06680
1.80000E+06 2.49183
1.80270E+06 2.93330
1.80490E+06 3.51670
1.80790E+06 4.45560
1.80970E+06 3.23320
1.81150E+06 2.45000
1.81370E+06 2.18330
1.81464E+06 2.27252
1.81610E+06 2.41110
1.81840E+06 3.31670
1.82140E+06 2.63330
1.82377E+06 2.34942
1.82460E+06 2.25000
1.82640E+06 2.50560
1.82920E+06 3.46669
1.83370E+06 2.76669
1.83600E+06 2.93879
1.83690E+06 3.21109
1.83910E+06 3.64448
1.83970E+06 3.52208
1.84090E+06 3.06498
1.84260E+06 2.95998
1.84530E+06 3.23998
1.84830E+06 3.38508
1.84990E+06 3.24498
1.85160E+06 3.49998
1.85280E+06 3.79498
1.85550E+06 4.02988
1.85790E+06 4.85978
1.85860E+06 4.50498
1.86000E+06 3.90998
1.86120E+06 3.15998
1.86390E+06 2.62498
1.86550E+06 2.47488
1.86730E+06 2.68998
1.86990E+06 3.21998
1.87120E+06 3.39998
1.87420E+06 2.86988
1.87590E+06 3.46498
1.87900E+06 4.62008
1.88100E+06 3.42498
1.88250E+06 2.70998
1.88550E+06 2.40488
1.88790E+06 1.92499
1.89040E+06 1.81499
1.89450E+06 1.76999
1.89660E+06 1.94000
1.89810E+06 1.87490
1.90000E+06 2.19000
1.90120E+06 2.83520
1.90360E+06 3.74999
1.90590E+06 3.02999
1.91140E+06 2.88498
1.91320E+06 3.04998
1.91470E+06 2.80997
1.91790E+06 2.80497
1.92180E+06 3.22507
1.92310E+06 3.48496
1.92580E+06 3.78506
1.92750E+06 3.57996
1.93030E+06 4.20986
1.93200E+06 3.88996
1.93480E+06 3.13495
1.93690E+06 3.47495
1.94010E+06 4.17485
1.94230E+06 3.44995
1.94440E+06 2.98995
1.94620E+06 3.50995
1.94860E+06 4.01995
1.95100E+06 4.30495
1.95370E+06 3.43495
1.95520E+06 3.22995
1.95700E+06 3.13495
1.95990E+06 3.26995
1.96420E+06 4.68885
1.96590E+06 4.23885
1.96730E+06 3.44435
1.97050E+06 2.12216
1.97470E+06 2.92216
1.97700E+06 2.21106
1.97890E+06 2.06106
1.98150E+06 2.47227
1.98360E+06 2.74427
1.98640E+06 3.36667
1.98990E+06 3.97208
1.99170E+06 3.22768
1.99310E+06 2.37779
1.99460E+06 2.09439
1.99740E+06 1.96660
2.00000E+06 1.99820
2.00060E+06 2.00560
2.00250E+06 2.21109
2.00710E+06 2.85568
2.00850E+06 2.79998
2.01060E+06 3.38338
2.01230E+06 3.78327
2.01490E+06 3.59997
2.01860E+06 3.77216
2.02210E+06 2.13886
2.02510E+06 1.75555
2.02750E+06 2.04435
2.02970E+06 2.47775
2.03310E+06 3.18884
2.03450E+06 3.63904
2.03680E+06 4.59424
2.03840E+06 3.93874
2.04000E+06 3.08884
2.04220E+06 2.49434
2.04420E+06 3.30554
2.04590E+06 4.31084
2.04680E+06 4.94994
2.04840E+06 5.31104
2.05120E+06 4.52774
2.05450E+06 3.46664
2.05750E+06 3.37214
2.06220E+06 3.61654
2.06450E+06 3.54434
2.06730E+06 2.71664
2.06810E+06 2.66664
2.06970E+06 2.82775
2.07160E+06 2.60555
2.07300E+06 2.29435
2.07480E+06 2.16665
2.07720E+06 2.45555
2.08000E+06 3.32776
2.08340E+06 3.94996
2.08580E+06 3.59997
2.08700E+06 3.17217
2.09000E+06 2.23318
2.09190E+06 2.59438
2.09320E+06 3.28878
2.09580E+06 5.18339
2.09740E+06 5.75019
2.09980E+06 5.07220
2.10180E+06 4.44430
2.10790E+06 3.53888
2.11150E+06 3.07217
2.11370E+06 3.32786
2.11750E+06 2.81126
2.11840E+06 2.61655
2.12230E+06 1.84435
2.12810E+06 2.56104
2.13240E+06 1.66663
2.13490E+06 1.82773
2.13730E+06 2.68323
2.13960E+06 2.87773
2.14250E+06 3.03882
2.14430E+06 3.36662
2.14810E+06 3.82782
2.14990E+06 3.92772
2.15130E+06 4.17202
2.15420E+06 5.07762
2.15580E+06 4.58862
2.15720E+06 3.62212
2.15900E+06 2.74992
2.16140E+06 2.19433
2.16320E+06 2.47213
2.16530E+06 2.94993
2.16640E+06 3.44433
2.16910E+06 4.17773
2.17110E+06 3.49433
2.17310E+06 2.96654
2.17760E+06 2.59435
2.18150E+06 1.92215
2.18390E+06 2.19996
2.18510E+06 2.43316
2.18910E+06 3.46107
2.19180E+06 3.25558
2.19450E+06 2.90558
2.19680E+06 3.09419
2.19970E+06 3.01670
2.20000E+06 2.99041
2.20300E+06 2.72770
2.20750E+06 2.38889
2.21320E+06 2.44439
2.21680E+06 2.72779
2.21990E+06 3.18329
2.22240E+06 3.36120
2.22330E+06 3.26670
2.22722E+06 3.40278
2.22890E+06 3.46110
2.23270E+06 2.94998
2.23430E+06 3.08888
2.24290E+06 4.65556
2.24600E+06 4.54976
2.24760E+06 4.26106
2.25000E+06 3.59055
2.25460E+06 2.30555
2.25640E+06 1.97215
2.26090E+06 1.66664
2.26400E+06 1.98884
2.26610E+06 2.32214
2.27030E+06 2.84455
2.27190E+06 2.93885
2.27390E+06 3.18315
2.27710E+06 4.33325
2.27910E+06 4.71105
2.28360E+06 3.97996
2.28590E+06 4.51496
2.29010E+06 5.34997
2.29350E+06 4.47488
2.29570E+06 4.61989
2.29870E+06 5.64500
2.30230E+06 4.53499
2.30590E+06 4.36497
2.30880E+06 3.40496
2.30990E+06 3.10496
2.31260E+06 3.28495
2.31460E+06 3.86494
2.32120E+06 3.13512
2.32300E+06 3.07991
2.32770E+06 2.67990
2.33150E+06 3.10999
2.33470E+06 3.05489
2.33810E+06 2.53488
2.34140E+06 2.14988
2.34660E+06 2.46487
2.34890E+06 2.56487
2.35200E+06 2.78507
2.35380E+06 3.02477
2.35560E+06 2.77987
2.35790E+06 2.71488
2.36390E+06 2.20978
2.36980E+06 2.49499
2.37320E+06 2.49480
2.37430E+06 2.71490
2.37850E+06 3.74991
2.38150E+06 3.37992
2.38750E+06 3.12994
2.39110E+06 2.60996
2.39500E+06 2.55988
2.39610E+06 2.71498
2.40000E+06 3.45597
2.40060E+06 3.57000
2.40800E+06 2.46496
2.41230E+06 2.78484
2.41590E+06 3.31493
2.41750E+06 3.96992
2.41950E+06 4.72481
2.42130E+06 5.15471
2.42310E+06 4.63990
2.42490E+06 3.70990
2.42780E+06 2.69989
2.43250E+06 3.18988
2.43550E+06 3.25487
2.43950E+06 3.94497
2.44110E+06 4.18487
2.44470E+06 3.85976
2.44780E+06 4.42486
2.45320E+06 3.47476
2.45350E+06 3.38006
2.45590E+06 4.04486
2.45800E+06 3.77986
2.46090E+06 3.16677
2.46510E+06 3.05547
2.46810E+06 2.37208
2.47080E+06 2.80548
2.47350E+06 3.55549
2.47500E+06 4.47760
2.47710E+06 5.17760
2.48100E+06 4.88891
2.48220E+06 4.71102
2.48400E+06 4.23312
2.48610E+06 3.50553
2.48790E+06 2.99434
2.49000E+06 2.77775
2.49240E+06 3.05556
2.49630E+06 3.16098
2.50000E+06 4.15200
2.50020E+06 4.20560
2.50620E+06 2.79988
2.51190E+06 2.61647
2.51340E+06 2.38317
2.51460E+06 2.75557
2.51880E+06 3.38886
2.52240E+06 3.76106
2.52720E+06 3.97776
2.53200E+06 2.58886
2.53410E+06 2.26667
2.53710E+06 2.42207
2.54010E+06 3.05557
2.54340E+06 3.55558
2.54580E+06 3.18889
2.55061E+06 2.60544
2.55180E+06 2.46110
2.55480E+06 2.59419
2.55990E+06 3.13348
2.56170E+06 2.96657
2.56410E+06 3.11687
2.56770E+06 3.98326
2.57190E+06 3.19436
2.57400E+06 3.49446
2.57730E+06 4.22776
2.58000E+06 4.06096
2.58210E+06 4.26666
2.58810E+06 5.24437
2.59200E+06 5.42228
2.59380E+06 5.72778
2.59560E+06 5.48329
2.59800E+06 4.98899
2.59980E+06 4.14440
2.60000E+06 4.08612
2.60430E+06 2.83329
2.60520E+06 2.70559
2.60970E+06 3.98329
2.61450E+06 4.81668
2.62050E+06 3.07218
2.62560E+06 2.31108
2.62860E+06 2.77768
2.63280E+06 4.41679
2.63430E+06 4.75559
2.63940E+06 5.04990
2.64111E+06 4.79905
2.64330E+06 4.47780
2.64720E+06 3.62800
2.64930E+06 3.75009
2.65140E+06 4.17219
2.65800E+06 2.92220
2.66130E+06 2.49440
2.66414E+06 2.76396
2.66610E+06 2.95000
2.67090E+06 2.18869
2.67510E+06 3.01109
2.67840E+06 4.06119
2.68290E+06 4.99429
2.68920E+06 4.12779
2.69400E+06 4.05559
2.69760E+06 4.86670
2.69885E+06 5.02003
2.70000E+06 5.16110
2.70400E+06 4.18348
2.70850E+06 3.67206
2.71450E+06 4.15554
2.71720E+06 3.52773
2.71930E+06 2.91662
2.72250E+06 2.53882
2.72370E+06 2.67771
2.72650E+06 2.36101
2.73250E+06 3.01089
2.73770E+06 3.95549
2.74300E+06 3.19418
2.74600E+06 3.45008
2.74750E+06 4.04978
2.74970E+06 4.76108
2.75000E+06 4.70828
2.75730E+06 3.42208
2.76380E+06 3.23889
2.76620E+06 3.03869
2.76970E+06 3.51090
2.77180E+06 4.31650
2.77550E+06 5.03881
2.78080E+06 4.39442
2.78530E+06 3.53324
2.79000E+06 2.88326
2.79350E+06 2.63887
2.79750E+06 2.82779
2.80000E+06 3.16332
2.80350E+06 3.63318
2.80900E+06 4.78887
2.81700E+06 2.82214
2.82170E+06 2.38884
2.82630E+06 2.60553
2.83280E+06 2.45553
2.83780E+06 2.94994
2.84130E+06 3.18304
2.84400E+06 3.06655
2.84750E+06 3.34445
2.85170E+06 3.22197
2.85750E+06 4.27219
2.85954E+06 3.79927
2.86270E+06 3.06669
2.86680E+06 3.26669
2.86950E+06 3.82218
2.87530E+06 3.21658
2.88180E+06 4.34439
2.88950E+06 2.85560
2.88976E+06 2.87984
2.89230E+06 3.11670
2.89630E+06 4.46670
2.89950E+06 4.93330
2.90380E+06 5.73877
2.91840E+06 2.38876
2.92290E+06 3.41654
2.92590E+06 4.00543
2.93000E+06 4.16651
2.93560E+06 4.81089
2.94010E+06 4.31078
2.94430E+06 3.65527
2.94650E+06 3.89977
2.95330E+06 3.81647
2.95660E+06 4.99977
2.96080E+06 5.66098
2.96410E+06 5.21649
2.97990E+06 2.86085
2.98360E+06 2.66657
2.99040E+06 3.70542
2.99530E+06 3.18326
2.99900E+06 3.49989
3.00000E+06 3.66850
3.00200E+06 4.00559
3.00760E+06 4.34436
3.01170E+06 3.66104
3.01700E+06 2.84431
3.02190E+06 2.40549
3.03120E+06 4.46657
3.03840E+06 2.76635
3.04930E+06 4.04984
3.05860E+06 2.94985
3.06350E+06 3.38875
3.06950E+06 2.81097
3.07440E+06 2.69428
3.07660E+06 2.49429
3.08710E+06 2.99993
3.09010E+06 2.82774
3.09390E+06 3.56666
3.09760E+06 3.82779
3.10510E+06 4.05557
3.10770E+06 3.56665
3.11260E+06 3.16663
3.12390E+06 4.66658
3.13180E+06 3.52755
3.14340E+06 4.69993
3.15130E+06 3.58873
3.16330E+06 3.23874
3.16850E+06 2.66095
3.17600E+06 3.37757
3.18240E+06 3.03320
3.18690E+06 3.21662
3.19140E+06 2.82215
3.20000E+06 3.61670
3.20410E+06 3.26888
3.20900E+06 3.01556
3.21460E+06 3.60213
3.22250E+06 2.76661
3.23340E+06 3.73098
3.24010E+06 2.78417
3.24570E+06 2.91316
3.24870E+06 3.34426
3.25000E+06 3.17536
3.25400E+06 2.65546
3.26260E+06 2.54427
3.26750E+06 2.24208
3.27010E+06 2.36658
3.27800E+06 3.29101
3.28590E+06 3.92653
3.29340E+06 3.19787
3.29560E+06 3.33998
3.29860E+06 3.01559
3.30160E+06 2.60219
3.30570E+06 2.40237
3.31140E+06 2.54884
3.31890E+06 3.51321
3.32670E+06 4.15319
3.33390E+06 3.51317
3.34100E+06 4.19316
3.34850E+06 3.40215
3.35070E+06 3.20205
3.35410E+06 3.31315
3.35750E+06 3.51306
3.36240E+06 3.62426
3.37100E+06 3.23328
3.37700E+06 3.52210
3.38750E+06 2.67324
3.39010E+06 2.83775
3.39460E+06 3.31327
3.40000E+06 3.05923
3.40140E+06 2.99330
3.40700E+06 3.28219
3.41220E+06 3.25109
3.41710E+06 3.41109
3.42120E+06 3.64669
3.42460E+06 3.49109
3.43060E+06 4.06889
3.43320E+06 4.53559
3.43724E+06 4.18475
3.43800E+06 4.11920
3.43920E+06 4.01559
3.44710E+06 3.26438
3.45650E+06 4.34436
3.46770E+06 3.39326
3.47220E+06 3.57106
3.47970E+06 3.11326
3.48310E+06 3.24667
3.48870E+06 3.85097
3.49550E+06 3.42439
3.49920E+06 3.55360
3.50000E+06 3.50810
3.50300E+06 3.33609
3.50850E+06 3.21107
3.51450E+06 3.52214
3.51800E+06 3.74163
3.52450E+06 3.94432
3.52900E+06 3.73551
3.52950E+06 3.73601
3.53500E+06 3.99990
3.54300E+06 3.49709
3.54750E+06 3.59429
3.55700E+06 4.01379
3.56050E+06 3.83879
3.56750E+06 3.95270
3.57400E+06 3.58881
3.57950E+06 3.96103
3.58550E+06 4.24154
3.59100E+06 4.12496
3.60000E+06 4.49720
3.60500E+06 4.12508
3.60850E+06 4.07777
3.61900E+06 3.59995
3.62600E+06 3.92223
3.62900E+06 3.74993
3.63550E+06 3.86932
3.64400E+06 4.54161
3.65750E+06 3.52211
3.66250E+06 3.70542
3.67450E+06 4.02493
3.68150E+06 3.59995
3.68600E+06 3.74716
3.69800E+06 3.93329
3.70000E+06 3.84340
3.70300E+06 3.70829
3.71000E+06 4.06387
3.71350E+06 3.96386
3.72200E+06 3.28904
3.72800E+06 3.33883
3.73200E+06 3.46102
3.73750E+06 3.58052
3.74650E+06 4.21101
3.75000E+06 4.05281
3.75850E+06 3.66921
3.76750E+06 3.16662
3.78300E+06 4.02225
3.78700E+06 4.01386
3.79050E+06 4.06937
3.79750E+06 4.07219
3.80000E+06 4.21137
3.80150E+06 4.29440
3.80850E+06 3.83880
3.81250E+06 3.95280
3.82350E+06 3.63330
3.83000E+06 4.05960
3.83100E+06 4.12537
3.83101E+06 4.12577
3.83200E+06 4.19170
3.83400E+06 4.10560
3.84250E+06 3.51939
3.84700E+06 3.57779
3.86350E+06 2.65559
3.87350E+06 3.23329
3.87850E+06 3.13079
3.88950E+06 3.68889
3.89850E+06 3.46660
3.90000E+06 3.50930
3.90250E+06 3.58030
3.91120E+06 3.59779
3.91440E+06 3.74159
3.91880E+06 3.67559
3.92380E+06 3.83499
3.92750E+06 3.63669
3.93190E+06 3.59949
3.93690E+06 3.33919
3.95380E+06 4.05079
3.96380E+06 3.61719
3.97250E+06 4.15189
3.98310E+06 3.96529
3.99380E+06 3.23620
4.00000E+06 3.49670
4.00200E+06 3.44670
4.00293E+06 3.42343
4.01310E+06 3.17570
4.02630E+06 4.24530
4.04250E+06 4.00220
4.05560E+06 3.65800
4.06750E+06 4.23940
4.08250E+06 4.00420
4.08500E+06 4.04690
4.09060E+06 3.98270
4.09250E+06 4.17140
4.10000E+06 3.74740
4.10810E+06 3.28670
4.11750E+06 3.73780
4.12380E+06 3.80970
4.12750E+06 3.76710
4.13440E+06 3.93420
4.13810E+06 4.11500
4.15690E+06 3.32560
4.16690E+06 3.66960
4.17690E+06 3.19920
4.19000E+06 3.99640
4.19690E+06 3.68140
4.20000E+06 3.81340
4.20560E+06 4.05080
4.21560E+06 3.71059
4.22440E+06 3.64438
4.22810E+06 3.50638
4.24060E+06 3.50638
4.26060E+06 3.27107
4.27630E+06 3.60147
4.28810E+06 3.25927
4.29310E+06 3.35077
4.30440E+06 4.26467
4.31000E+06 4.15577
4.32250E+06 3.68717
4.33250E+06 3.82137
4.34190E+06 3.45777
4.35000E+06 3.55307
4.36500E+06 3.21858
4.37130E+06 3.30028
4.37940E+06 3.57639
4.38500E+06 3.39749
4.39560E+06 2.90750
4.40000E+06 3.02230
4.40600E+06 3.17790
4.44420E+06 4.12669
4.45250E+06 3.83308
4.45920E+06 3.37608
4.46600E+06 3.76108
4.47500E+06 4.11498
4.48850E+06 3.62888
4.49370E+06 3.68318
4.50000E+06 3.15188
4.50200E+06 2.98318
4.51100E+06 3.33528
4.52220E+06 3.85438
4.53800E+06 3.18358
4.54320E+06 3.36638
4.55080E+06 3.31589
4.55300E+06 3.50828
4.56580E+06 3.33719
4.57850E+06 3.74169
4.60000E+06 3.36780
4.60400E+06 3.29790
4.60479E+06 3.28412
4.60480E+06 3.28401
4.61000E+06 3.19340
4.61600E+06 3.30030
4.62420E+06 3.86030
4.63550E+06 3.72420
4.64000E+06 3.77670
4.65120E+06 3.36250
4.65800E+06 3.44610
4.66400E+06 3.64830
4.68870E+06 2.96400
4.69400E+06 3.01440
4.70970E+06 3.61720
4.71500E+06 3.55110
4.71870E+06 3.62110
4.72770E+06 3.36060
4.73750E+06 3.62500
4.74870E+06 3.25760
4.75850E+06 3.48310
4.77420E+06 2.86670
4.79300E+06 3.65420
4.80000E+06 3.40550
4.80870E+06 3.09610
4.81470E+06 3.19130
4.82150E+06 3.12140
4.82450E+06 3.25170
4.82900E+06 3.17970
4.84100E+06 3.70670
4.85600E+06 3.41111
4.87100E+06 3.64251
4.87450E+06 3.45411
4.87550E+06 3.53941
4.88230E+06 3.45581
4.88750E+06 3.57441
4.89650E+06 3.29441
4.90250E+06 3.37631
4.90620E+06 3.19921
4.91370E+06 3.42281
4.92270E+06 3.49281
4.92800E+06 3.20111
4.94150E+06 3.78440
4.95570E+06 3.53750
4.96770E+06 2.98920
4.97530E+06 3.22030
4.98800E+06 3.08830
4.99770E+06 3.43640
5.00000E+06 3.43990
5.01380E+06 3.46000
5.02380E+06 3.25000
5.03500E+06 3.34560
5.04250E+06 3.48780
5.05250E+06 3.33440
5.05750E+06 3.37550
5.06250E+06 3.58771
5.08000E+06 3.24441
5.09000E+06 3.35001
5.09750E+06 3.55001
5.11370E+06 2.86221
5.11870E+06 3.14110
5.12370E+06 3.39000
5.12880E+06 3.39110
5.13500E+06 3.46220
5.14750E+06 3.32780
5.16000E+06 3.29330
5.16300E+06 3.22100
5.17000E+06 3.05220
5.18120E+06 3.01000
5.18750E+06 3.10120
5.19250E+06 3.25440
5.19750E+06 3.56330
5.20000E+06 3.52750
5.22370E+06 3.18770
5.22870E+06 3.28000
5.23870E+06 3.24330
5.25000E+06 3.35220
5.25630E+06 3.18110
5.26500E+06 3.27330
5.27380E+06 3.28890
5.28500E+06 3.54000
5.29120E+06 3.49440
5.29870E+06 3.54110
5.30870E+06 3.43110
5.31500E+06 3.45220
5.33250E+06 3.23110
5.33750E+06 3.27890
5.34200E+06 3.26780
5.34310E+06 3.26500
5.34310E+06 3.26500
5.34750E+06 3.25440
5.35250E+06 3.55430
5.35620E+06 3.63000
5.37000E+06 3.68780
5.38000E+06 3.31670
5.38127E+06 3.33909
5.38127E+06 3.33913
5.38630E+06 3.43220
5.39630E+06 3.33210
5.40000E+06 3.35787
5.40130E+06 3.36560
5.41100E+06 3.28120
5.41204E+06 3.27217
5.42370E+06 3.17220
5.44130E+06 3.29329
5.46000E+06 3.12219
5.46630E+06 3.22999
5.47370E+06 3.03109
5.49750E+06 3.40779
5.50000E+06 3.37689
5.52380E+06 3.07669
5.55750E+06 3.52889
5.56380E+06 3.34669
5.57380E+06 3.46780
5.59370E+06 3.15110
5.60000E+06 3.21350
5.63750E+06 3.58110
5.69130E+06 3.06000
5.70000E+06 3.15140
5.71630E+06 3.32220
5.75000E+06 3.01370
5.75500E+06 2.96790
5.75521E+06 2.96596
5.75880E+06 2.93330
5.76800E+06 3.00630
5.77150E+06 3.03295
5.80000E+06 3.26320
5.81000E+06 3.34330
5.85870E+06 2.97000
5.87250E+06 3.31220
5.88880E+06 3.24441
5.89880E+06 3.41440
5.90000E+06 3.40501
5.92870E+06 3.18000
5.94750E+06 3.35670
5.99880E+06 2.96220
6.00000E+06 2.97220
6.03400E+06 3.25000
6.04700E+06 3.10310
6.05161E+06 3.05116
6.05162E+06 3.05110
6.05400E+06 3.02440
6.07200E+06 3.21550
6.12000E+06 2.75560
6.15600E+06 3.26000
6.17050E+06 3.19580
6.17600E+06 3.17150
6.17756E+06 3.16449
6.18000E+06 3.15400
6.18190E+06 3.14529
6.18190E+06 3.14528
6.19200E+06 3.10220
6.20000E+06 3.17590
6.20600E+06 3.23110
6.23200E+06 3.03890
6.24800E+06 3.24680
6.25000E+06 3.22540
6.27800E+06 2.92550
6.29800E+06 3.21760
6.30000E+06 3.20270
6.32800E+06 2.99220
6.37400E+06 3.11780
6.39600E+06 3.06560
6.40000E+06 3.08070
6.42400E+06 3.17000
6.44200E+06 3.04550
6.44379E+06 3.03311
6.45800E+06 2.93560
6.49000E+06 3.10000
6.50000E+06 2.98820
6.50400E+06 2.94330
6.53000E+06 3.04770
6.53600E+06 2.93890
6.56600E+06 3.18220
6.58450E+06 3.03723
6.58450E+06 3.03720
6.59400E+06 2.96560
6.60000E+06 3.01240
6.62200E+06 3.18340
6.65200E+06 2.92220
6.67213E+06 3.10312
6.67213E+06 3.10313
6.67300E+06 3.11100
6.68400E+06 3.21110
6.70000E+06 3.10910
6.70794E+06 3.05815
6.70794E+06 3.05813
6.71800E+06 2.99440
6.73800E+06 3.12000
6.74861E+06 3.04173
6.74861E+06 3.04170
6.75000E+06 3.03160
6.78800E+06 2.75110
6.79800E+06 2.90680
6.80000E+06 2.90800
6.82400E+06 2.92110
6.84800E+06 3.04320
6.87800E+06 2.91000
6.90000E+06 2.91600
6.92079E+06 2.92153
6.92079E+06 2.92154
6.92100E+06 2.92160
6.95600E+06 2.93220
7.00000E+06 3.11090
7.00800E+06 3.14330
7.06400E+06 3.04210
7.08308E+06 3.11993
7.09600E+06 3.17330
7.10000E+06 3.15150
7.10512E+06 3.12338
7.10512E+06 3.12338
7.13000E+06 2.98770
7.14000E+06 3.02290
7.16600E+06 3.11440
7.19000E+06 2.93220
7.20000E+06 2.98330
7.21600E+06 3.06440
7.25000E+06 3.01080
7.27000E+06 2.97890
7.28400E+06 3.07670
7.29200E+06 3.01260
7.31200E+06 2.85331
7.38400E+06 3.02890
7.40000E+06 3.01120
7.43000E+06 2.97670
7.44800E+06 3.10440
7.46200E+06 3.05170
7.50000E+06 2.90980
7.52000E+06 2.83560
7.59200E+06 2.96550
7.60000E+06 2.94720
7.61500E+06 2.91200
7.64800E+06 2.86400
7.69300E+06 2.98850
7.72400E+06 2.87300
7.73200E+06 2.84360
7.75000E+06 2.83610
7.78000E+06 2.82220
7.80000E+06 2.86620
7.82202E+06 2.91360
7.82500E+06 2.92000
7.86700E+06 2.81330
7.88800E+06 2.88801
7.92700E+06 2.89610
8.00000E+06 2.70840
8.09200E+06 2.95110
8.13700E+06 2.83820
8.17300E+06 2.85600
8.24500E+06 2.79020
8.25000E+06 2.79270
8.27500E+06 2.80890
8.31500E+06 2.77450
8.33800E+06 2.75470
8.37400E+06 2.83560
8.42800E+06 2.69240
8.45200E+06 2.76800
8.50000E+06 2.72600
8.50900E+06 2.71820
8.53800E+06 2.80790
8.53845E+06 2.80929
8.55100E+06 2.84810
8.60000E+06 2.81280
8.63800E+06 2.85780
8.68600E+06 2.75379
8.72500E+06 2.81599
8.75000E+06 2.78770
8.80000E+06 2.72800
8.84390E+06 2.67599
8.87200E+06 2.64270
8.96500E+06 2.78310
9.00000E+06 2.74280
9.04600E+06 2.69070
9.14306E+06 2.77948
9.14306E+06 2.77949
9.18100E+06 2.81419
9.20000E+06 2.77699
9.25000E+06 2.67629
9.28000E+06 2.61599
9.35313E+06 2.67844
9.38200E+06 2.70310
9.38986E+06 2.69860
9.38987E+06 2.69860
9.40000E+06 2.69280
9.45400E+06 2.66040
9.50000E+06 2.70970
9.55900E+06 2.67727
9.60000E+06 2.71876
9.61000E+06 2.72886
9.64600E+06 2.67365
9.67000E+06 2.69315
9.72700E+06 2.66215
9.76000E+06 2.68265
9.80000E+06 2.63585
9.85000E+06 2.57866
9.94603E+06 2.64942
9.94603E+06 2.64942
9.97300E+06 2.66930
1.00000E+07 2.63900
1.00030E+07 2.63560
1.00650E+07 2.65219
1.01550E+07 2.53889
1.02050E+07 2.57109
1.02388E+07 2.55329
1.02389E+07 2.55326
1.02800E+07 2.53159
1.03700E+07 2.48668
1.04000E+07 2.50158
1.04400E+07 2.52219
1.05000E+07 2.50260
1.05600E+07 2.48220
1.06304E+07 2.50216
1.07400E+07 2.53327
1.09150E+07 2.46217
1.10000E+07 2.46240
1.10741E+07 2.45992
1.11050E+07 2.45890
1.12037E+07 2.44584
1.15000E+07 2.40680
1.16000E+07 2.39438
1.17607E+07 2.37859
1.20000E+07 2.35520
1.24000E+07 2.30486
1.25000E+07 2.29440
1.27450E+07 2.23997
1.28000E+07 2.24380
1.30000E+07 2.26430
1.30600E+07 2.26557
1.32000E+07 2.24557
1.32560E+07 2.23790
1.35000E+07 2.20650
1.36000E+07 2.19368
1.37193E+07 2.18251
1.40000E+07 2.15670
1.40252E+07 2.15550
1.45000E+07 2.13550
1.45574E+07 2.13330
1.49770E+07 2.11860
1.49902E+07 2.11810
1.49903E+07 2.11810
1.50000E+07 2.11780
1.50806E+07 2.11530
1.53081E+07 2.10840
1.55000E+07 2.10300
1.57121E+07 2.09750
1.57121E+07 2.09750
1.59279E+07 2.09230
1.59389E+07 2.09210
1.60000E+07 2.09070
1.60360E+07 2.08980
1.65000E+07 2.08030
1.70000E+07 2.07160
1.75000E+07 2.06450
1.76684E+07 2.06240
1.80000E+07 2.05870
1.85000E+07 2.05410
1.85215E+07 2.05390
1.90000E+07 2.05070
1.93045E+07 2.04920
1.93193E+07 2.04920
1.95000E+07 2.04850
1.96643E+07 2.04800
2.00000E+07 2.04740
2.00000E+07 2.04743
2.10000E+07 2.04861
2.20000E+07 2.05389
2.30000E+07 2.06278
2.40000E+07 2.07470
2.50000E+07 2.08910
2.60000E+07 2.10490
2.70000E+07 2.12160
2.80000E+07 2.13870
2.90000E+07 2.15560
3.00000E+07 2.17200
3.10000E+07 2.18750
3.20000E+07 2.20186
3.30000E+07 2.21511
3.40000E+07 2.22703
3.50000E+07 2.23763
3.60000E+07 2.24681
3.70000E+07 2.25458
3.80000E+07 2.26094
3.90000E+07 2.26587
4.00000E+07 2.26936
4.10000E+07 2.27151
4.20000E+07 2.27231
4.30000E+07 2.27173
4.40000E+07 2.26988
4.50000E+07 2.26685
4.60000E+07 2.26262
4.70000E+07 2.25720
4.80000E+07 2.25067
4.90000E+07 2.24323
5.00000E+07 2.23477
5.10000E+07 2.22539
5.20000E+07 2.21509
5.30000E+07 2.20405
5.40000E+07 2.19237
5.50000E+07 2.17986
5.60000E+07 2.16679
5.70000E+07 2.15318
5.80000E+07 2.13891
5.90000E+07 2.12428
6.00000E+07 2.10908
6.10000E+07 2.09352
6.20000E+07 2.07768
6.30000E+07 2.06146
6.40000E+07 2.04497
6.50000E+07 2.02829
6.60000E+07 2.01133
6.70000E+07 1.99428
6.80000E+07 1.97703
6.90000E+07 1.95958
7.00000E+07 1.94214
7.10000E+07 1.92459
7.20000E+07 1.90694
7.30000E+07 1.88948
7.40000E+07 1.87181
7.50000E+07 1.85433
7.60000E+07 1.83674
7.70000E+07 1.81932
7.80000E+07 1.80189
7.90000E+07 1.78463
8.00000E+07 1.76735
8.10000E+07 1.75024
8.20000E+07 1.73321
8.30000E+07 1.71624
8.40000E+07 1.69954
8.50000E+07 1.68281
8.60000E+07 1.66651
8.70000E+07 1.65011
8.80000E+07 1.63405
8.90000E+07 1.61800
9.00000E+07 1.60213
9.10000E+07 1.58659
9.20000E+07 1.57107
9.30000E+07 1.55590
9.40000E+07 1.54076
9.50000E+07 1.52603
9.60000E+07 1.51128
9.70000E+07 1.49672
9.80000E+07 1.48252
9.90000E+07 1.46836
1.00000E+08 1.45455
1.02000E+08 1.42723
1.04000E+08 1.40092
1.06000E+08 1.37535
1.08000E+08 1.35058
1.10000E+08 1.32660
1.12000E+08 1.30323
1.14000E+08 1.28085
1.16000E+08 1.25917
1.18000E+08 1.23821
1.20000E+08 1.21783
1.22000E+08 1.19837
1.24000E+08 1.17953
1.26000E+08 1.16137
1.28000E+08 1.14372
1.30000E+08 1.12685
1.32000E+08 1.11066
1.34000E+08 1.09487
1.36000E+08 1.07981
1.38000E+08 1.06532
1.40000E+08 1.05137
1.42000E+08 1.03787
1.44000E+08 1.02497
1.46000E+08 1.01258
1.48000E+08 1.00052
1.50000E+08 0.989090
1.52000E+08 0.978090
1.54000E+08 0.967450
1.56000E+08 0.957310
1.58000E+08 0.947600
1.60000E+08 0.938150
1.62000E+08 0.929210
1.64000E+08 0.920690
1.66000E+08 0.912350
1.68000E+08 0.904500
1.70000E+08 0.896860
1.72000E+08 0.889670
1.74000E+08 0.882790
1.76000E+08 0.876150
1.78000E+08 0.869880
1.80000E+08 0.863900
1.82000E+08 0.858080
1.84000E+08 0.852660
1.86000E+08 0.847500
1.88000E+08 0.842530
1.90000E+08 0.837880
1.92000E+08 0.833350
1.94000E+08 0.829190
1.96000E+08 0.825270
1.98000E+08 0.821450
2.00000E+08 0.818020