Fe-58(n,tot) ENDF/B-VII.1
Energy(eV) XS(b)
1.00000E-05 61.7027
1.25000E-05 55.4921
1.50000E-05 50.9096
2.00000E-05 44.4805
2.37500E-05 41.0604
2.75000E-05 38.3671
3.50000E-05 34.3461
4.25000E-05 31.4447
5.00000E-05 29.2242
6.25000E-05 26.4562
7.50000E-05 24.4137
0.000100000 21.5481
0.000125000 19.5935
0.000150000 18.1513
0.000200000 16.1278
0.000237500 15.0513
0.000275000 14.2036
0.000350000 12.9379
0.000425000 12.0246
0.000500000 11.3256
0.000625000 10.4542
0.000750000 9.81119
0.00100000 8.90903
0.00125000 8.29366
0.00150000 7.83958
0.00200000 7.20246
0.00237500 6.86351
0.00275000 6.59658
0.00350000 6.19803
0.00425000 5.91042
0.00500000 5.69031
0.00625000 5.41590
0.00750000 5.21340
0.0100000 4.92928
0.0125000 4.73546
0.0150000 4.59245
0.0200000 4.39177
0.0253000 4.24799
0.0314750 4.12943
0.0376500 4.04137
0.0500000 3.91705
0.0625000 3.83089
0.0750000 3.76728
0.100000 3.67796
0.125000 3.61697
0.150000 3.57194
0.200000 3.50870
0.275000 3.44849
0.350000 3.40884
0.414000 3.38390
0.414000 3.38390
0.414001 3.38390
0.414002 3.38390
0.414003 3.38390
0.414005 3.38390
0.414011 3.38390
0.414021 3.38389
0.414042 3.38389
0.414084 3.38387
0.414168 3.38384
0.414336 3.38379
0.414672 3.38367
0.415344 3.38344
0.416688 3.38298
0.419375 3.38207
0.424750 3.38027
0.435500 3.37678
0.457000 3.37017
0.500000 3.35825
0.625000 3.33085
0.750000 3.31061
1.00000 3.28215
1.50000 3.24827
2.00000 3.22796
2.75000 3.20849
3.50000 3.19554
5.00000 3.17877
7.50000 3.16249
10.0000 3.15233
15.0000 3.13940
20.0000 3.13088
27.5000 3.12176
35.0000 3.11488
50.0000 3.10444
75.0000 3.09165
100.000 3.08156
133.000 3.07036
166.000 3.06073
200.000 3.05344
207.450 3.05347
214.900 3.05715
218.625 3.06397
220.488 3.07122
222.350 3.08481
224.213 3.11409
225.144 3.14311
226.075 3.19531
226.541 3.23860
227.006 3.30359
227.472 3.40753
227.938 3.58885
228.403 3.94813
228.636 4.27659
228.869 4.81996
229.102 5.81169
229.218 6.64327
229.334 7.89958
229.451 9.90996
229.567 13.3620
229.684 19.7792
229.800 32.3293
229.900 49.8400
230.000 61.4923
230.101 49.7652
230.201 32.2067
230.264 24.4559
230.327 19.0523
230.452 12.6548
230.578 9.33218
230.703 7.44157
230.829 6.27863
230.955 5.51745
231.206 4.61976
231.457 4.13267
231.708 3.84022
232.210 3.52203
232.713 3.36207
233.215 3.27055
233.717 3.21334
234.220 3.17519
235.224 3.12903
236.229 3.10318
238.238 3.07663
240.248 3.06381
242.257 3.05653
246.275 3.04874
254.312 3.04193
262.350 3.03840
278.424 3.03390
294.498 3.03093
310.572 3.02988
318.609 3.03096
326.647 3.03465
334.684 3.04493
338.702 3.05624
342.721 3.07779
344.730 3.09637
346.739 3.12512
348.749 3.17276
350.758 3.25987
351.763 3.33324
352.767 3.44504
353.772 3.62751
354.777 3.95524
355.279 4.22702
355.781 4.63522
356.284 5.28889
356.786 6.43186
357.288 8.70499
357.539 10.7933
357.790 14.2638
358.042 20.6492
358.167 26.0468
358.293 34.2601
358.418 47.5615
358.544 70.7796
358.670 115.008
358.732 151.964
358.795 204.382
358.898 324.787
359.000 404.900
359.103 324.258
359.206 203.531
359.275 147.214
359.344 108.996
359.481 65.0931
359.619 43.0067
359.756 30.6975
359.894 23.2317
360.031 18.3938
360.306 12.7421
360.581 9.70570
360.856 7.89325
361.131 6.72700
361.406 5.93317
361.956 4.95331
362.506 4.39474
363.056 4.04656
363.606 3.81504
364.706 3.53581
365.806 3.38023
366.906 3.28469
368.006 3.22180
370.206 3.14664
372.406 3.10503
374.605 3.07948
376.805 3.06260
381.205 3.04217
385.605 3.03051
394.405 3.01779
403.204 3.01077
412.004 3.00603
429.603 2.99928
464.802 2.98937
500.000 2.98084
625.000 2.95283
750.000 2.92577
999.999 2.87235
1000.00 2.87235
1000.01 2.87235
1000.01 2.87235
1000.03 2.87234
1000.05 2.87234
1000.10 2.87233
1000.20 2.87231
1000.39 2.87227
1000.78 2.87218
1001.56 2.87202
1003.13 2.87168
1006.25 2.87102
1012.50 2.86969
1025.00 2.86703
1050.00 2.86170
1100.00 2.85106
1200.00 2.82976
1400.00 2.78707
1400.00 2.78707
1400.01 2.78707
1400.01 2.78707
1400.03 2.78707
1400.05 2.78706
1400.10 2.78705
1400.20 2.78703
1400.39 2.78699
1400.78 2.78690
1401.56 2.78674
1403.13 2.78640
1406.25 2.78573
1412.50 2.78440
1425.00 2.78172
1450.00 2.77637
1500.00 2.76565
1625.00 2.73877
1750.00 2.71177
2000.00 2.65734
2000.00 2.65734
2000.01 2.65734
2000.01 2.65734
2000.03 2.65733
2000.05 2.65733
2000.10 2.65732
2000.20 2.65729
2000.40 2.65725
2000.80 2.65716
2001.60 2.65699
2003.20 2.65664
2006.41 2.65593
2012.81 2.65453
2025.62 2.65172
2051.24 2.64610
2102.48 2.63483
2204.95 2.61221
2409.90 2.56655
2614.85 2.52030
2717.33 2.49695
2768.56 2.48525
2794.18 2.47957
2806.99 2.47745
2813.40 2.47922
2816.60 2.49057
2817.40 2.50203
2818.20 2.53202
2818.60 2.56934
2819.00 2.65756
2819.20 2.75484
2819.40 2.95137
2819.60 3.42762
2819.70 3.93917
2819.80 4.85019
2819.90 6.28448
2820.00 7.22860
2820.10 6.27061
2820.20 4.85175
2820.29 4.02436
2820.38 3.52646
2820.55 3.02866
2820.73 2.80956
2820.90 2.69750
2821.26 2.59224
2821.61 2.54652
2822.31 2.50872
2823.01 2.49386
2825.82 2.47773
2831.44 2.47220
2842.68 2.46850
2865.15 2.46302
2910.10 2.45253
3000.00 2.43156
3000.00 2.43156
3000.01 2.43156
3000.02 2.43156
3000.03 2.43155
3000.06 2.43155
3000.11 2.43153
3000.22 2.43151
3000.45 2.43146
3000.89 2.43135
3001.78 2.43114
3003.56 2.43073
3007.11 2.42990
3014.22 2.42823
3028.44 2.42490
3056.88 2.41823
3113.76 2.40483
3227.53 2.37785
3455.05 2.32305
3910.10 2.20972
4000.00 2.18667
4250.00 2.12127
4500.00 2.05378
4500.00 2.05378
4500.01 2.05377
4500.02 2.05377
4500.03 2.05377
4500.06 2.05376
4500.12 2.05374
4500.25 2.05371
4500.49 2.05364
4500.98 2.05351
4501.96 2.05324
4503.91 2.05270
4507.81 2.05163
4515.63 2.04948
4531.25 2.04518
4562.50 2.03655
4625.00 2.01916
4750.00 1.98393
5000.00 1.91144
5000.00 1.91144
5000.01 1.91144
5000.01 1.91144
5000.02 1.91144
5000.04 1.91143
5000.08 1.91142
5000.15 1.91140
5000.29 1.91135
5000.59 1.91127
5001.17 1.91109
5002.34 1.91075
5004.68 1.91006
5009.36 1.90867
5018.73 1.90590
5037.45 1.90033
5074.91 1.88916
5149.81 1.86660
5299.61 1.82061
5599.23 1.72490
5898.84 1.62434
6048.64 1.57694
6086.10 1.57012
6104.82 1.57036
6123.55 1.57684
6142.27 1.59944
6151.64 1.62602
6161.00 1.67818
6165.68 1.72385
6170.36 1.79509
6175.04 1.91396
6179.73 2.13236
6182.07 2.31680
6184.41 2.59816
6186.75 3.05741
6189.09 3.88094
6190.26 4.56289
6191.43 5.58381
6192.60 7.21186
6193.77 10.0398
6194.94 15.6081
6195.53 20.6566
6196.11 28.9349
6196.70 43.8410
6196.99 56.1901
6197.28 74.5198
6197.57 103.383
6197.87 151.412
6198.16 237.449
6198.45 396.275
6198.73 633.579
6199.00 792.074
6199.28 634.345
6199.55 397.314
6199.84 237.663
6200.14 151.863
6200.43 103.648
6200.72 74.8754
6201.02 56.4711
6201.31 44.1527
6201.90 29.2124
6202.49 20.9056
6203.07 15.8330
6204.25 10.2332
6205.42 7.37429
6206.59 5.72330
6207.77 4.68460
6208.94 3.98939
6211.29 3.14384
6213.64 2.66894
6215.98 2.37540
6218.33 2.18113
6223.02 1.94742
6227.72 1.81700
6232.41 1.73637
6237.11 1.68273
6246.50 1.61719
6255.89 1.57930
6274.66 1.53724
6293.44 1.51343
6312.22 1.49696
6349.78 1.47293
6500.00 1.40367
6500.00 1.40367
6500.01 1.40366
6500.01 1.40366
6500.03 1.40366
6500.05 1.40365
6500.10 1.40363
6500.20 1.40358
6500.39 1.40350
6500.78 1.40333
6501.56 1.40300
6503.13 1.40233
6506.25 1.40100
6512.50 1.39834
6525.00 1.39304
6549.99 1.38245
6599.99 1.36128
6699.97 1.31866
6899.95 1.23084
7299.89 1.04068
8099.78 0.586144
8549.89 0.290912
8774.94 0.149063
8887.47 0.0880570
9000.00 0.0410230
9000.00 0.0410224
9000.01 0.0410197
9000.02 0.0410171
9000.03 0.0410121
9000.06 0.0410019
9000.12 0.0409817
9000.25 0.0409415
9000.49 0.0408610
9000.98 0.0407003
9001.96 0.0403800
9003.91 0.0397451
9007.81 0.0384966
9015.63 0.0360875
9031.25 0.0316349
9062.50 0.0243233
9093.75 0.0194078
9125.00 0.0172570
9156.25 0.0182962
9187.50 0.0230173
9218.75 0.0319908
9250.00 0.0458791
9281.25 0.0654560
9312.50 0.0916248
9375.00 0.168165
9437.50 0.286471
9500.00 0.461997
9562.50 0.716893
9625.00 1.08353
9687.49 1.61037
9749.99 2.37185
9812.49 3.48595
9874.99 5.14639
9937.49 7.68507
9999.99 11.6989
10000.0 11.7005
10000.1 11.7062
10000.1 11.7110
10000.3 11.7207
10000.5 11.7411
10001.0 11.7818
10002.0 11.8638
10004.0 12.0289
10008.0 12.3672
10016.0 13.0783
10031.9 14.6477
10063.8 18.4975
10127.5 30.4719
10191.3 52.9184
10223.1 71.2254
10255.0 96.8987
10380.0 251.979
10411.3 255.500
10442.5 231.779
10505.0 160.075
10569.3 105.500
10633.7 73.2669
10698.0 54.0169
10762.3 41.8724
10826.7 33.7665
10891.0 28.0897
11019.7 20.8292
11148.4 16.4913
11277.0 13.6602
11534.4 10.2487
11791.7 8.29788
12049.0 7.04603
12563.7 5.53744
13078.4 4.65555
13593.1 4.06875
14622.4 3.31382
16681.1 2.45925
17710.5 2.16378
18225.2 2.03265
18482.5 1.97007
18611.2 1.93921
18675.5 1.92376
18707.7 1.91701
18723.7 1.92060
18731.8 1.95579
18735.8 2.11164
18736.8 2.27237
18737.8 2.70490
18738.3 3.27970
18738.8 4.70434
18739.1 6.38685
18739.3 10.1007
18739.5 14.0667
18739.6 20.7238
18739.6 27.2064
18739.7 35.4582
18739.8 47.6258
18739.8 65.5259
18739.9 103.976
18740.0 129.858
18740.1 104.614
18740.2 66.3241
18740.3 43.7747
18740.3 31.6129
18740.4 22.9019
18740.5 17.9646
18740.6 11.7887
18740.8 8.56193
18741.1 5.50160
18741.4 4.15518
18742.0 3.03161
18742.6 2.59041
18743.8 2.24017
18745.0 2.10700
18749.7 1.96652
18759.2 1.92420
18778.3 1.90768
18816.4 1.89488
18892.6 1.87590
19045.0 1.84059
19197.4 1.80582
19273.6 1.78827
19311.7 1.78071
19330.7 1.78701
19340.3 1.83977
19342.6 1.89960
19345.0 2.07273
19346.2 2.31088
19347.4 2.95606
19348.0 3.79841
19348.6 5.86111
19348.9 8.31245
19349.0 10.4223
19349.2 13.6918
19349.3 19.1068
19349.5 28.8695
19349.6 48.3585
19349.7 64.0058
19349.8 87.9642
19349.9 141.795
19350.0 175.658
19350.1 142.739
19350.2 89.1865
19350.3 65.1903
19350.4 47.6442
19350.5 35.9892
19350.5 28.0644
19350.7 18.5058
19350.9 13.2805
19351.0 10.1506
19351.2 8.13912
19351.5 5.85790
19351.8 4.58880
19352.1 3.83485
19352.8 3.02989
19354.0 2.38659
19355.3 2.14073
19357.8 1.95218
19360.4 1.88098
19365.5 1.82578
19370.5 1.80410
19390.8 1.77710
19431.5 1.76084
19512.7 1.74057
19675.1 1.70476
20000.0 1.63631
20000.0 1.63630
20000.1 1.63629
20000.1 1.63628
20000.2 1.63627
20000.4 1.63623
20000.8 1.63615
20001.5 1.63600
20002.9 1.63570
20005.9 1.63509
20011.7 1.63388
20023.5 1.63145
20046.9 1.62661
20093.8 1.61696
20187.5 1.59777
20375.0 1.55979
20750.0 1.48537
21500.0 1.34177
23000.0 1.07119
23000.0 1.07118
23000.1 1.07117
23000.1 1.07117
23000.2 1.07115
23000.4 1.07112
23000.8 1.07105
23001.5 1.07092
23003.0 1.07066
23006.0 1.07014
23012.0 1.06910
23024.0 1.06701
23047.9 1.06285
23095.9 1.05453
23191.7 1.03795
23383.4 1.00499
23766.8 0.939889
24533.6 0.812859
25300.3 0.690245
25683.7 0.632508
25779.6 0.620524
25875.4 0.614915
25923.3 0.621312
25947.3 0.631890
25971.3 0.654858
25995.2 0.709063
26007.2 0.765058
26019.2 0.867975
26031.2 1.08467
26037.2 1.29399
26043.1 1.65960
26049.1 2.38148
26052.1 3.03854
26055.1 4.11195
26058.1 6.04754
26059.6 7.64431
26061.1 9.99645
26062.6 13.6895
26064.1 19.8104
26065.6 30.6137
26067.1 50.1477
26068.6 80.1122
26070.0 100.400
26071.5 80.8517
26072.9 50.9742
26074.2 32.9141
26075.6 22.3340
26076.9 15.9263
26078.2 11.9193
26080.9 7.41726
26083.5 5.12642
26086.2 3.81538
26088.8 2.99849
26094.1 2.07794
26099.4 1.59875
26104.7 1.31776
26115.3 1.01749
26125.9 0.867974
26136.5 0.782218
26157.7 0.691377
26178.9 0.645537
26200.1 0.618269
26242.5 0.586899
26327.3 0.555090
26412.1 0.535225
26751.2 0.477826
27429.6 0.380504
28786.3 0.210130
30142.9 0.0793198
30821.3 0.0355033
31160.4 0.0202750
31330.0 0.0137203
31414.8 0.00980193
31457.2 0.00922660
31478.4 0.0256259
31483.7 0.0483008
31489.0 0.120004
31491.7 0.224588
31494.3 0.522453
31495.6 0.925716
31497.0 1.97153
31497.6 3.25332
31498.0 4.39191
31498.3 6.21273
31498.6 9.36423
31498.9 15.4340
31499.1 20.9282
31499.3 28.9138
31499.4 42.5477
31499.6 63.3143
31499.8 101.993
31500.0 128.353
31500.2 103.377
31500.4 65.0520
31500.6 41.2366
31500.8 28.0009
31501.0 19.6187
31501.1 14.6279
31501.5 8.86171
31501.9 5.98654
31502.2 4.28229
31502.6 3.24389
31503.3 2.04621
31504.8 1.04348
31506.3 0.646773
31509.2 0.332201
31512.1 0.210788
31518.0 0.115772
31523.8 0.0787620
31535.6 0.0490446
31547.3 0.0369670
31594.1 0.0221849
31687.9 0.0160590
31875.3 0.0140683
32062.8 0.0160430
32250.2 0.0209420
32437.7 0.0287504
32625.1 0.0396265
33000.0 0.0715247
33000.0 0.0715268
33000.1 0.0715331
33000.1 0.0715383
33000.2 0.0715488
33000.4 0.0715697
33000.8 0.0716116
33001.6 0.0716954
33003.2 0.0718632
33006.4 0.0722008
33012.8 0.0728783
33025.7 0.0742471
33051.3 0.0770408
33102.6 0.0828522
33205.2 0.0953967
33410.4 0.124421
33820.8 0.200975
34231.2 0.319048
34333.8 0.368997
34436.3 0.459672
34487.6 0.558036
34513.3 0.646967
34538.9 0.799061
34564.6 1.10053
34577.4 1.38043
34590.2 1.85342
34603.1 2.74971
34609.5 3.53090
34615.9 4.75976
34622.3 6.84135
34628.7 10.7292
34631.9 14.0265
34635.1 18.9596
34638.3 26.6110
34641.5 38.4568
34645.8 61.5486
34650.0 77.2982
34654.2 62.3131
34658.5 39.2902
34661.4 28.1651
34664.3 20.6790
34667.2 15.6510
34670.1 12.2085
34676.0 7.99440
34681.8 5.66880
34687.7 4.26306
34693.5 3.35688
34705.2 2.30084
34716.8 1.73568
34728.5 1.39973
34751.8 1.03955
34775.2 0.862945
34798.5 0.765617
34845.2 0.672790
34938.5 0.626615
35031.9 0.636016
35405.3 0.792048
36152.0 1.30251
36898.8 2.08220
37272.2 2.64387
37365.6 2.84248
37458.9 3.15110
37505.6 3.44420
37528.9 3.69118
37552.3 4.09097
37575.6 4.83186
37587.3 5.47652
37598.9 6.49612
37610.6 8.24894
37622.3 11.6046
37628.1 14.5233
37633.9 19.0089
37639.8 26.1693
37645.6 37.7113
37652.8 59.1176
37660.0 73.8257
37667.2 60.1722
37674.4 39.1647
37679.9 28.1640
37685.4 21.0591
37690.9 16.4527
37696.4 13.3808
37707.3 9.73271
37718.3 7.77419
37729.3 6.61518
37740.3 5.88022
37762.2 5.04494
37784.2 4.61703
37806.1 4.37837
37850.0 4.15880
37937.8 4.09469
38025.6 4.19051
38376.8 4.95468
39079.2 7.23546
39781.6 10.5777
40484.0 15.3918
41231.3 22.6805
41605.0 27.2938
41791.8 29.8391
41838.5 30.4988
41885.2 31.1693
41908.6 31.5123
41931.9 31.8728
41943.6 32.0776
41955.3 32.3536
41961.1 32.5886
41967.0 33.0849
41969.9 33.6569
41971.3 34.1663
41972.8 34.9975
41974.3 36.4948
41975.0 37.7366
41975.7 39.5931
41976.5 42.5204
41977.2 47.4375
41977.9 56.2775
41978.6 72.4844
41979.3 97.3141
41980.0 114.098
41980.7 98.2820
41981.4 74.1886
41982.1 57.0573
41982.9 48.0434
41983.7 43.0880
41984.4 40.1863
41985.2 38.3226
41986.0 37.0926
41987.5 35.5997
41989.0 34.7723
41990.6 34.2768
41993.6 33.7437
41996.7 33.4886
41999.8 33.3581
42005.9 33.2597
42018.1 33.2911
42030.4 33.4146
42054.9 33.7342
42079.4 34.0841
42177.5 35.5564
42373.5 38.6078
42765.7 44.8172
43550.0 55.6121
44744.7 60.0739
45342.1 56.6405
45640.8 54.1207
45790.1 52.7483
45864.8 52.0432
45902.1 51.6874
45920.8 51.5127
45930.1 51.4467
45934.8 51.4978
45937.1 51.7875
45938.3 52.5492
45938.9 53.8349
45939.1 55.2566
45939.4 57.9197
45939.7 62.0362
45940.0 64.8209
45940.3 62.2839
45940.6 58.2270
45940.9 55.3378
45941.2 53.8188
45941.9 52.5135
45943.2 51.7577
45945.8 51.4255
45951.1 51.2699
45961.7 51.1349
45982.8 50.9204
46025.0 50.5082
46109.4 49.6857
46278.3 48.0362
46616.0 44.7704
47808.0 34.5899
49000.0 27.0762
49000.0 27.0761
49000.1 27.0757
49000.1 27.0754
49000.3 27.0748
49000.5 27.0735
49001.0 27.0709
49002.0 27.0657
49003.9 27.0554
49007.8 27.0347
49015.6 26.9935
49031.3 26.9114
49062.5 26.7483
49125.0 26.4263
49250.0 25.7993
49500.0 24.6106
50000.0 22.4705
51218.7 18.3220
52437.3 15.2630
53656.0 12.9300
54265.3 11.9856
54417.6 11.7963
54569.9 11.6902
54646.1 11.7426
54684.2 11.8451
54722.3 12.0635
54760.4 12.5388
54779.4 12.9808
54798.4 13.6998
54817.5 14.9493
54836.5 17.3294
54846.0 19.3660
54855.6 22.4414
54865.1 27.2205
54874.6 34.6759
54887.3 49.4358
54900.0 59.7509
54912.7 50.5692
54925.4 36.1050
54935.3 28.3168
54945.2 23.3174
54955.1 20.0879
54965.1 17.9336
54984.9 15.3731
55004.7 13.9832
55024.5 13.1450
55044.4 12.5981
55084.0 11.9405
55123.6 11.5623
55163.3 11.3143
55242.6 10.9957
55401.2 10.6181
55559.7 10.3511
56194.1 9.53062
57462.7 8.19711
60000.0 5.99833
60000.0 5.99832
60000.1 5.99826
60000.1 5.99821
60000.3 5.99811
60000.5 5.99792
60001.0 5.99753
60002.0 5.99675
60003.9 5.99518
60007.8 5.99206
60015.6 5.98581
60031.1 5.97331
60062.2 5.94833
60124.3 5.89843
60248.5 5.79880
60497.1 5.59998
60994.1 5.20184
61491.2 4.79979
61615.4 4.70185
61677.5 4.65658
61739.7 4.61883
61801.8 4.60233
61832.9 4.61504
61863.9 4.66296
61895.0 4.79744
61910.5 4.94103
61926.1 5.20024
61941.6 5.71275
61949.4 6.16723
61957.1 6.88291
61964.9 8.08740
61972.7 10.2825
61980.4 14.7135
61984.3 18.6008
61988.2 24.3497
61994.1 37.0670
62000.0 46.0063
62005.9 38.3038
62011.8 26.0592
62016.5 19.3842
62021.1 15.1020
62025.8 12.3292
62030.4 10.4833
62039.7 8.28757
62049.0 7.09776
62058.3 6.38240
62067.5 5.91855
62086.1 5.36947
62104.7 5.06368
62123.3 4.87189
62160.4 4.64437
62197.6 4.51043
62234.7 4.41783
62309.0 4.28727
62383.3 4.18856
62457.6 4.10355
62606.2 3.95092
63200.6 3.38311
64389.4 2.11304
64983.8 1.34080
65578.2 0.494993
65726.8 0.302390
65875.4 0.145939
65949.7 0.0914691
66024.0 0.0612314
66061.2 0.0579384
66098.3 0.0643642
66135.5 0.0821788
66172.6 0.113338
66209.8 0.160137
66246.9 0.225271
66321.2 0.423789
66395.5 0.741657
66469.8 1.22443
66544.1 1.93539
66618.4 2.96175
66692.7 4.42138
66767.0 6.46672
66875.3 10.8709
66983.5 17.3764
67200.0 33.9811
67308.3 39.1363
67416.5 39.7999
67633.0 33.3548
67824.3 26.7481
68015.6 21.7531
68207.0 18.1919
68254.8 17.4726
68302.6 16.8133
68326.5 16.5107
68350.4 16.2456
68362.4 16.1534
68374.4 16.1652
68380.3 16.3042
68383.3 16.4701
68386.3 16.7831
68389.3 17.4244
68390.8 18.0124
68392.3 18.9610
68393.8 20.6382
68395.3 23.8972
68396.0 26.7986
68396.8 31.2714
68397.5 38.6561
68398.3 50.7126
68399.1 72.2450
68400.0 87.5946
68400.9 74.1326
68401.7 52.4918
68402.4 40.8098
68403.1 33.2761
68403.8 28.4753
68404.5 25.3508
68405.9 21.6542
68407.2 19.6820
68408.6 18.5080
68410.0 17.7628
68412.7 16.8933
68415.5 16.4162
68418.2 16.1216
68423.7 15.7745
68434.7 15.4268
68445.7 15.2199
68467.6 14.9185
68489.6 14.6681
68511.5 14.4466
68533.5 14.2803
68544.5 14.2694
68550.0 14.3211
68555.4 14.4661
68560.9 14.8343
68563.7 15.2111
68566.4 15.8675
68569.2 17.1188
68570.5 18.1843
68571.9 19.8036
68573.3 22.3922
68574.7 26.7892
68576.0 34.7617
68577.4 49.7547
68578.7 73.0212
68580.0 89.3759
68581.3 75.5240
68582.6 53.4664
68583.8 39.8815
68585.0 31.7187
68586.2 26.7315
68587.4 23.5610
68589.7 19.9142
68592.1 17.9992
68594.5 16.8683
68596.8 16.1404
68601.6 15.2789
68606.3 14.7936
68611.1 14.4839
68620.6 14.1029
68630.0 13.8651
68639.5 13.6919
68658.5 13.4327
68677.5 13.2275
68696.4 13.0484
68734.4 12.7309
68810.3 12.1798
68886.1 11.6946
69189.6 10.1528
69796.6 8.15492
71010.6 5.97916
72224.6 4.71168
72831.7 4.22523
73135.2 4.00122
73286.9 3.88741
73362.8 3.82500
73400.7 3.80560
73410.2 3.82279
73419.7 3.90548
73424.4 4.04069
73429.2 4.43436
73431.5 4.95061
73433.9 6.20577
73435.1 7.60546
73436.3 10.3786
73436.9 12.9252
73437.5 16.9188
73438.1 23.5540
73438.7 34.8895
73439.3 54.8204
73440.0 68.9553
73440.7 57.1845
73441.3 37.8707
73442.1 24.6479
73442.8 17.3389
73443.5 13.1938
73444.2 10.6820
73445.7 7.96245
73447.1 6.60978
73448.5 5.84090
73450.0 5.36107
73452.9 4.81616
73458.6 4.34953
73464.4 4.15442
73475.9 3.98725
73487.4 3.91336
73510.4 3.84166
73533.4 3.80223
73579.4 3.75067
73625.5 3.71125
73809.6 3.58174
74177.8 3.35294
74914.3 2.93601
76387.2 2.19657
77860.1 1.54039
78596.6 1.23445
78964.8 1.08273
79148.9 1.01179
79194.9 1.00506
79241.0 1.03330
79264.0 1.09868
79275.5 1.17115
79287.0 1.30651
79298.5 1.58666
79304.3 1.84555
79310.0 2.27049
79315.8 3.02609
79321.5 4.51480
79324.4 5.83846
79327.3 7.90122
79330.2 11.2641
79333.0 16.7701
79336.5 27.0147
79340.0 34.4032
79343.5 28.3993
79347.0 18.5717
79350.7 11.7814
79354.4 8.04541
79358.1 5.91044
79361.8 4.60818
79369.3 3.18710
79376.7 2.47329
79384.1 2.06341
79391.5 1.80571
79406.4 1.50832
79421.2 1.34651
79436.1 1.24665
79465.7 1.13050
79525.1 1.01994
79584.5 0.960980
79822.0 0.830602
80297.0 0.653591
81247.0 0.370397
82197.0 0.169274
82672.0 0.109691
82909.5 0.0929109
83147.0 0.0861464
83384.5 0.0905632
83622.0 0.107468
83859.5 0.138327
84097.0 0.184776
84572.0 0.331968
85047.0 0.566282
85522.0 0.908865
85997.0 1.38528
86947.0 2.86473
87713.4 4.73103
88096.6 5.93766
88288.1 6.61208
88383.9 6.98327
88431.8 7.28628
88443.8 7.46824
88455.8 7.87796
88461.8 8.34125
88467.8 9.32819
88470.8 10.2959
88473.8 11.9720
88476.7 15.1222
88479.7 21.3555
88482.4 30.5508
88485.0 37.2275
88487.6 31.9786
88490.3 23.2787
88493.2 17.0199
88496.2 13.6534
88499.1 11.7700
88502.0 10.6401
88507.9 9.43099
88513.8 8.84172
88525.5 8.31908
88537.3 8.11500
88584.3 7.99814
88678.3 8.28107
88866.4 9.06845
89242.5 10.8608
89994.6 14.9723
91499.0 23.4806
91614.2 24.0268
91671.8 24.2826
91700.5 24.4003
91714.9 24.4722
91722.1 24.6326
91725.7 25.2303
91726.6 25.7713
91727.5 27.0083
91728.4 30.6577
91728.9 35.5055
91729.3 45.9488
91729.7 60.1058
91730.0 70.0979
91730.3 61.8995
91730.7 48.7220
91730.9 41.2175
91731.2 36.5690
91731.7 31.4430
91732.8 27.7084
91733.8 26.3982
91734.9 25.8011
91737.0 25.2760
91739.1 25.0575
91747.6 24.8201
91764.4 24.7943
91798.2 24.9020
91865.7 25.1718
92000.7 25.7069
92270.7 26.6609
92810.8 28.0380
93890.8 28.7825
96051.0 25.6104
98025.5 21.6247
100000 18.2784
101574 16.1494
102362 15.2330
102755 14.8031
102952 14.5891
103050 14.4737
103100 14.4066
103124 14.3911
103136 14.5429
103140 14.7358
103143 15.2424
103144 15.9062
103146 17.2879
103146 18.7590
103147 20.9815
103148 25.7555
103149 35.0832
103149 47.8671
103150 58.7267
103151 50.4737
103151 38.0535
103152 28.5721
103153 23.8192
103154 20.7708
103154 19.1746
103156 17.3057
103157 16.3794
103160 15.5213
103163 15.1413
103169 14.8100
103175 14.6676
103187 14.5362
103199 14.4732
103223 14.4040
103247 14.3600
103342 14.2381
103533 14.0397
103915 13.6732
104678 12.9911
106205 11.7706
107732 10.6887
108496 10.1830
108878 9.93539
109069 9.81095
109164 9.74558
109212 9.70733
109236 9.68172
109247 9.67352
109253 9.73604
109256 10.0522
109258 10.9927
109259 12.5914
109259 17.7038
109260 27.2309
109261 19.1576
109261 13.7713
109262 11.8808
109263 10.6946
109266 10.0859
109271 9.84403
109282 9.74526
109304 9.69558
109346 9.65334
109432 9.59248
109603 9.48164
109944 9.26577
110628 8.83727
111312 8.40232
111483 8.28940
111654 8.17157
111825 8.04235
111910 7.98625
111932 7.99833
111953 8.09040
111964 8.25012
111969 8.41697
111974 8.70926
111980 9.29395
111982 9.81199
111985 10.5893
111988 11.9243
111990 14.2034
111993 18.7713
111996 27.7202
111998 41.1344
112000 50.6584
112002 43.2594
112005 31.0997
112006 23.7621
112008 19.1439
112010 16.2184
112012 14.3790
112016 12.1269
112019 10.9061
112023 10.1720
112027 9.69510
112034 9.12955
112042 8.81222
112049 8.61796
112064 8.39303
112079 8.26716
112094 8.18718
112123 8.08800
112183 7.97924
112242 7.90964
112361 7.80419
112479 7.71373
112954 7.38057
113903 6.70606
115801 5.10902
116751 4.08062
117700 2.80097
118649 1.24779
119124 0.493985
119361 0.214852
119479 0.118675
119539 0.0771483
119568 0.0837892
119576 0.126432
119583 0.282449
119587 0.511692
119591 1.11321
119593 1.84335
119594 3.28789
119595 4.80939
119596 7.09706
119597 11.0277
119598 18.5792
119599 30.5610
119600 40.4280
119601 33.4397
119602 22.0804
119603 15.5500
119604 11.1151
119604 8.28017
119605 6.40528
119607 4.19590
119608 3.00510
119612 1.83059
119615 1.28600
119621 0.801209
119628 0.591863
119640 0.412838
119653 0.338984
119679 0.281863
119704 0.267739
119755 0.287110
119806 0.341771
119908 0.534035
120010 0.841833
120160 1.54430
120310 2.60892
120460 4.10120
120610 6.05333
120910 11.1091
121210 16.4641
121510 20.3206
121810 22.0237
122410 21.3859
122915 19.5967
123167 18.7063
123294 18.2838
123357 18.0791
123388 17.9781
123404 17.9277
123412 17.9022
123416 17.8896
123418 17.8858
123420 18.3615
123420 18.9372
123420 18.4541
123422 17.8910
123424 17.8741
123428 17.8584
123435 17.8341
123449 17.7882
123478 17.6985
123536 17.5227
123652 17.1830
123884 16.5506
124348 15.4556
125276 13.7968
126204 12.6143
127131 11.7289
128059 11.0378
128987 10.4839
129451 10.2512
129683 10.1483
129915 10.0595
130147 9.99823
130263 9.99008
130379 10.0161
130495 10.1213
130553 10.2416
130610 10.4626
130668 10.9043
130697 11.2991
130726 11.9278
130755 13.0034
130784 15.0304
130799 16.7574
130813 19.3631
130828 23.4156
130842 29.6912
130861 41.7721
130880 49.7897
130899 41.7424
130918 29.7094
130936 22.1290
130954 17.8246
130973 15.2898
130991 13.7303
131009 12.7059
131027 12.0083
131064 11.1436
131100 10.6474
131137 10.3367
131209 9.97738
131282 9.77932
131355 9.65307
131501 9.49495
131647 9.39124
131793 9.31088
132084 9.18099
132376 9.07008
132668 8.96885
133251 8.78325
134417 8.45332
135000 8.30344
135292 8.23738
135365 8.22815
135438 8.23793
135474 8.26957
135511 8.37578
135529 8.52628
135538 8.67068
135547 8.91929
135556 9.39524
135561 9.81728
135565 10.4659
135570 11.5841
135575 13.6016
135577 15.3197
135579 17.8690
135581 21.7445
135584 27.3175
135587 38.9523
135590 46.6833
135593 39.1407
135596 27.7386
135599 22.4402
135601 18.9305
135605 14.6600
135609 12.4438
135613 11.1808
135617 10.4014
135621 9.88919
135629 9.28059
135637 8.94659
135646 8.74326
135662 8.51724
135678 8.39944
135695 8.32908
135728 8.25021
135793 8.17849
135859 8.14114
135990 8.09321
136121 8.05626
136383 7.99167
136646 7.93178
137695 7.71007
139794 7.31415
141892 6.95779
142942 6.78263
143204 6.73547
143466 6.68313
143729 6.61952
143794 6.60469
143860 6.60918
143893 6.64748
143909 6.69775
143925 6.80036
143942 7.02911
143950 7.25133
143958 7.62940
143966 8.32669
143975 9.76666
143979 11.0957
143983 13.2492
143987 16.9042
143991 23.0337
143995 34.2288
144000 43.0801
144005 37.4129
144009 26.7780
144013 20.0367
144018 15.9390
144022 13.4191
144026 11.8299
144034 9.95308
144043 8.97403
144051 8.38671
144059 8.01309
144076 7.56979
144093 7.32472
144109 7.17254
144143 6.99724
144176 6.89983
144210 6.83801
144276 6.76300
144343 6.71734
144410 6.68519
144543 6.63945
144810 6.57658
145077 6.52699
146145 6.36040
147213 6.20719
148281 6.05708
149349 5.90599
150416 5.75175
150950 5.67776
151217 5.64741
151484 5.63224
151751 5.66181
151885 5.72085
152018 5.85232
152152 6.15258
152218 6.44132
152285 6.91962
152352 7.76493
152419 9.38263
152452 10.7635
152485 12.8222
152519 15.9811
152552 20.8069
152601 31.5836
152650 40.1726
152699 34.9667
152748 25.0201
152800 17.8859
152852 13.8421
152904 11.4835
152956 10.0189
153008 9.05324
153060 8.38331
153164 7.53534
153268 7.03357
153372 6.70753
153580 6.31376
153788 6.08431
153996 5.93200
154412 5.73485
154828 5.60367
155244 5.50265
156076 5.34129
156908 5.20236
157739 5.06710
158155 4.99455
158571 4.91018
158779 4.85741
158987 4.78901
159195 4.70424
159247 4.70566
159273 4.73128
159299 4.80311
159325 4.99244
159338 5.19012
159351 5.53789
159364 6.19132
159377 7.53941
159384 8.76296
159390 10.6955
159397 13.8476
159403 18.9280
159412 29.5440
159420 37.9465
159429 33.0653
159437 23.7862
159444 18.4143
159450 14.9069
159457 12.5735
159463 10.9760
159477 9.00573
159490 7.90497
159503 7.21720
159516 6.76226
159543 6.20356
159569 5.88206
159596 5.67626
159649 5.43114
159702 5.29037
159755 5.19894
159861 5.08502
159967 5.01440
160072 4.96412
160284 4.89246
160708 4.79447
161131 4.71761
162826 4.45460
164520 4.19341
165368 4.05154
165791 3.96969
166003 3.91439
166109 3.87111
166162 3.85838
166175 3.88205
166188 3.98119
166195 4.12728
166202 4.49113
166205 4.88458
166208 5.62461
166212 7.15353
166213 8.56638
166215 10.5542
166217 15.4102
166220 19.3609
166223 17.1330
166225 12.7236
166228 9.50094
166231 7.72795
166233 6.67760
166236 6.01747
166242 5.26219
166247 4.87609
166258 4.49541
166269 4.31845
166291 4.15342
166312 4.07739
166356 4.00401
166399 3.96643
166486 3.92320
166573 3.89468
166747 3.85101
166921 3.81341
167616 3.67357
169006 3.37897
170397 3.03569
171788 2.61723
173178 2.08585
174569 1.39232
175264 0.979713
175959 0.561090
176307 0.387996
176655 0.291312
176829 0.295548
177002 0.354848
177176 0.490715
177350 0.731395
177518 1.09600
177685 1.62978
177853 2.37497
178020 3.37082
178355 6.17603
178690 9.73382
179025 12.9697
179360 14.8448
180030 14.7750
180490 13.5579
180950 12.3017
181410 11.2130
181870 10.3144
182789 8.97293
183709 8.04220
184629 7.36184
185548 6.83720
186468 6.40151
186698 6.29519
186928 6.17991
187043 6.11325
187158 6.03481
187215 5.99232
187273 5.96812
187302 5.99968
187330 6.17517
187345 6.44943
187352 6.71140
187359 7.13435
187366 7.87530
187374 9.25116
187381 12.0216
187388 17.8131
187394 26.6571
187400 34.0337
187406 30.1804
187412 22.3260
187416 18.3388
187420 15.5696
187429 12.1636
187437 10.3340
187445 9.25459
187453 8.56523
187461 8.09652
187477 7.51285
187493 7.17142
187510 6.95060
187542 6.68525
187574 6.53097
187607 6.42989
187671 6.30203
187736 6.22108
187801 6.16228
187930 6.07643
188189 5.95600
188448 5.86172
189483 5.56535
191554 5.11328
193625 4.74895
194660 4.58033
194919 4.53583
195178 4.48585
195307 4.45530
195437 4.41437
195501 4.38464
195566 4.34004
195631 4.26569
195663 4.27982
195671 4.37275
195679 4.68382
195683 5.09612
195687 5.98351
195689 6.82990
195691 8.22796
195693 10.6408
195695 15.1441
195698 23.4297
195700 30.4026
195702 27.0378
195705 19.7202
195707 14.9476
195709 11.9469
195711 10.0574
195713 8.81692
195717 7.35589
195721 6.56128
195730 5.76019
195738 5.37487
195755 5.01405
195772 4.84697
195805 4.69039
195839 4.61562
195906 4.54031
195973 4.49978
196107 4.45128
196242 4.41846
196510 4.36801
196779 4.32527
197852 4.17580
200000 3.90662
200000 3.90660
200001 3.90650
200002 3.90642
200003 3.90624
200006 3.90589
200012 3.90517
200024 3.90375
200047 3.90091
200094 3.89524
200188 3.88391
200376 3.86131
200752 3.81638
201505 3.72726
203009 3.54997
204514 3.36579
205266 3.25770
205454 3.22372
205642 3.18139
205831 3.11963
205925 3.09417
205948 3.11634
205972 3.21891
205983 3.37015
205995 3.72909
206001 4.10038
206007 4.75766
206013 5.99521
206019 8.35543
206024 12.4166
206030 15.8221
206036 14.2069
206042 10.6884
206048 7.85955
206055 6.32116
206061 5.43731
206068 4.89245
206081 4.28214
206095 3.96767
206121 3.65717
206148 3.50847
206201 3.36506
206254 3.29292
206360 3.21170
206465 3.15562
206571 3.10185
206677 3.03744
206783 2.96492
206810 2.97612
206836 3.09434
206850 3.30103
206863 3.84787
206869 4.45664
206876 5.61632
206883 8.02397
206886 10.1662
206889 13.3650
206895 21.3963
206900 28.3041
206905 25.1470
206911 18.0928
206914 14.7467
206917 12.3489
206924 9.28753
206930 7.55185
206937 6.49088
206943 5.78802
206949 5.31082
206962 4.70687
206975 4.34661
206988 4.11438
207014 3.83373
207039 3.67301
207065 3.56949
207116 3.44406
207168 3.36977
207219 3.31981
207322 3.25472
207425 3.21177
207527 3.17956
207733 3.13076
208144 3.05862
208555 2.99888
209376 2.88903
209787 2.82930
209993 2.78554
210095 2.73815
210147 2.67395
210173 2.59901
210185 2.59517
210192 2.93413
210195 4.05876
210197 6.02501
210197 8.13153
210198 11.8160
210200 25.3125
210201 22.1997
210202 16.2300
210203 11.5769
210204 8.86243
210206 6.21795
210210 4.43068
210214 3.81607
210218 3.52789
210226 3.25181
210234 3.12295
210265 2.94360
210329 2.85717
210455 2.80545
210708 2.75803
211214 2.69022
212226 2.56796
214250 2.32835
216275 2.08663
216781 2.02687
217287 1.97058
217540 1.94745
217793 1.93846
217919 1.95256
217983 1.97346
218046 2.01606
218109 2.10971
218141 2.20005
218172 2.35510
218204 2.65171
218220 2.90975
218236 3.31455
218251 3.99672
218267 5.26031
218275 6.32104
218283 7.90050
218291 10.3189
218299 14.0329
218309 21.3821
218320 26.2913
218331 21.4148
218341 14.0862
218348 10.8444
218355 8.57562
218368 5.89375
218381 4.48234
218394 3.68279
218407 3.18586
218420 2.86236
218447 2.47763
218473 2.26764
218499 2.14036
218552 1.99920
218604 1.92521
218657 1.88018
218762 1.82716
218973 1.77095
219183 1.73362
219604 1.67235
220024 1.61597
220445 1.56151
220866 1.51086
221076 1.49110
221287 1.48849
221392 1.51105
221444 1.54060
221497 1.59925
221550 1.72618
221576 1.84767
221602 2.05400
221629 2.43927
221642 2.76855
221655 3.26701
221668 4.07863
221681 5.47469
221694 8.08857
221707 13.2370
221719 20.5868
221730 25.4917
221741 20.7305
221753 13.6049
221766 8.37563
221780 5.73355
221793 4.30896
221806 3.47537
221820 2.94806
221833 2.59959
221860 2.17893
221887 1.94326
221914 1.79826
221968 1.63343
222021 1.54476
222075 1.48976
222182 1.42405
222290 1.38381
222397 1.35449
222612 1.30984
223041 1.23994
223470 1.17783
225188 0.944409
226906 0.712224
227765 0.575448
227979 0.528449
228194 0.463997
228301 0.418519
228409 0.359498
228462 0.330509
228516 0.338862
228543 0.413298
228570 0.687470
228583 1.05205
228597 1.85348
228603 2.61298
228610 3.85262
228617 5.95027
228623 9.54648
228632 16.8736
228640 23.3514
228648 20.7348
228657 14.4036
228662 11.2408
228667 8.93339
228678 6.07987
228688 4.48469
228699 3.53310
228709 2.91002
228720 2.48551
228741 1.94936
228762 1.63020
228783 1.42244
228825 1.17187
228867 1.02691
228910 0.933037
228994 0.817854
229162 0.701675
229331 0.639416
230005 0.519947
231353 0.423331
232702 0.423068
234050 0.541837
235221 0.780852
236391 1.19197
237562 1.81661
238147 2.21360
238293 2.33010
238440 2.48683
238513 2.62083
238586 2.88930
238623 3.16079
238659 3.66535
238696 4.71775
238732 7.11238
238761 10.6907
238790 13.8925
238819 12.7013
238848 9.69045
238868 8.05963
238888 6.91224
238928 5.55638
238969 4.85235
239009 4.45650
239090 4.06982
239171 3.91658
239332 3.86002
239493 3.93087
240139 4.55693
241430 6.25851
242205 7.34181
242593 7.82336
242786 8.01370
242835 8.07209
242883 8.20460
242907 8.38253
242920 8.55175
242932 8.83386
242944 9.33451
242956 10.2935
242968 12.3006
242980 16.7950
242990 23.7359
243000 29.9870
243010 27.6976
243020 21.8114
243031 17.0833
243043 14.4318
243054 12.8869
243065 11.9271
243088 10.8558
243111 10.3051
243133 9.98565
243156 9.78764
243201 9.57116
243292 9.42914
243382 9.42429
243744 9.70345
244468 10.3990
245915 11.2843
248810 10.7143
252184 7.94609
253870 6.27551
254714 5.38729
255136 4.89496
255241 4.75179
255346 4.58605
255452 4.39140
255478 4.36438
255504 4.43465
255518 4.60418
255531 5.07816
255537 5.60094
255544 6.56354
255551 8.43973
255557 12.1465
255564 18.7713
255570 24.7336
255577 22.6304
255583 17.1325
255591 12.4923
255598 9.92030
255606 8.44157
255614 7.52580
255621 6.91891
255629 6.49370
255645 5.94509
255660 5.61011
255675 5.38494
255706 5.09983
255737 4.92139
255768 4.79552
255829 4.61856
255952 4.38401
256075 4.20620
256567 3.62889
257552 2.61029
258536 1.69456
259520 0.957576
260205 0.622390
260548 0.530860
260890 0.500381
261233 0.538260
261575 0.650734
262260 1.11494
262945 1.89605
263630 2.94457
265000 5.42802
265395 6.13970
265592 6.50905
265642 6.62366
265691 6.79112
265716 6.94175
265741 7.25364
265753 7.58920
265765 8.27863
265771 8.94911
265778 10.0907
265784 12.2857
265790 16.6210
265795 22.6092
265800 26.6941
265805 22.8096
265810 16.8591
265815 13.3161
265819 11.2151
265824 9.94920
265829 9.16508
265838 8.27479
265847 7.82496
265865 7.41819
265883 7.25869
265920 7.15964
265956 7.15484
266029 7.21934
266102 7.31172
266394 7.71489
266978 8.44918
268145 9.51037
269313 10.1010
269896 10.2632
270480 10.3689
270620 10.3976
270759 10.4525
270829 10.5172
270864 10.5773
270899 10.6801
270934 10.8781
270951 11.0544
270969 11.3347
270986 11.8228
271004 12.7565
271013 13.5803
271021 14.8378
271030 16.8466
271039 20.0841
271049 26.0419
271060 30.0940
271071 26.2698
271081 20.4098
271090 17.1755
271099 15.1446
271108 13.8592
271116 13.0162
271134 12.0347
271151 11.5150
271168 11.2094
271186 11.0153
271221 10.7924
271255 10.6733
271290 10.6023
271360 10.5247
271499 10.4602
271638 10.4313
272194 10.3673
273307 10.2109
274419 9.97301
274697 9.89587
274975 9.81222
275115 9.77710
275254 9.78252
275323 9.84449
275393 10.0436
275427 10.2736
275462 10.7037
275497 11.5544
275532 13.2800
275566 16.3604
275600 19.2544
275634 18.3836
275668 15.8188
275695 14.2505
275722 13.1760
275749 12.4402
275775 11.9275
275829 11.2790
275882 10.8986
275989 10.4814
276096 10.2569
276310 10.0075
276524 9.85234
276952 9.59239
277059 9.51254
277166 9.41445
277220 9.36212
277273 9.34234
277300 9.39885
277327 9.64281
277340 9.97211
277353 10.6690
277367 12.3022
277374 13.8896
277380 16.3794
277390 22.5002
277400 28.1991
277410 26.4856
277420 21.4608
277429 17.9290
277438 15.6734
277448 14.2299
277457 13.2685
277475 12.1147
277494 11.4714
277512 11.0712
277530 10.8017
277567 10.4658
277604 10.2649
277641 10.1315
277714 9.96258
277788 9.85706
277861 9.78242
278008 9.67786
278302 9.54125
278596 9.44049
279772 9.12972
280949 8.85600
281537 8.71000
281684 8.66548
281831 8.60839
281904 8.56802
281978 8.50666
282051 8.38372
282088 8.27479
282107 8.36807
282116 9.03655
282120 10.4314
282123 12.0593
282125 14.9201
282130 26.2952
282133 24.7419
282135 19.9708
282139 15.4267
282142 13.1414
282146 11.8512
282149 11.0976
282157 10.2551
282164 9.82259
282178 9.38805
282192 9.17631
282220 8.97001
282248 8.86895
282305 8.76575
282361 8.71015
282474 8.64427
282587 8.60053
283039 8.47965
283942 8.28830
285749 7.94024
287557 7.60834
288460 7.44674
288912 7.37577
289025 7.36773
289138 7.38374
289194 7.42381
289251 7.54733
289279 7.70975
289307 8.09721
289321 8.51950
289335 9.34936
289343 10.0931
289350 11.2448
289357 13.1593
289364 16.2931
289372 21.8669
289380 25.6814
289388 22.1077
289396 16.6264
289406 12.8086
289415 10.7842
289424 9.66302
289433 9.00091
289451 8.28938
289469 7.94046
289505 7.62097
289541 7.48171
289614 7.35912
289686 7.30251
289831 7.24170
289976 7.20206
290266 7.13918
290556 7.08286
291716 6.86896
294035 6.43661
298673 5.42965
300992 4.75747
303312 3.83414
304471 3.21329
305631 2.44042
306790 1.51997
307370 1.05985
307950 0.706560
308231 0.624481
308513 0.640006
308794 0.788782
309075 1.10657
309356 1.62105
309638 2.33931
310200 4.26487
310958 7.07700
311148 7.70239
311337 8.30266
311527 8.91347
311621 9.19256
311669 9.22466
311692 9.13483
311716 8.87278
311739 8.27605
311762 7.01778
311808 1.99621
311820 1.10698
311831 0.820399
311843 1.06606
311854 1.63577
311877 3.03107
311900 4.23811
311923 5.14550
311946 5.81452
311992 6.70029
312038 7.24766
312084 7.61762
312176 8.08792
312267 8.38162
312450 8.73701
312799 9.06338
313149 9.18970
313847 9.17937
315245 8.79039
316642 8.31417
318039 7.86148
319436 7.42973
320834 6.96619
321532 6.67380
321882 6.48763
322231 6.24851
322580 5.90845
322755 5.66817
322929 5.34413
323104 4.87648
323279 4.14273
323366 3.60159
323453 2.88274
323541 1.95188
323628 0.961730
323652 0.770219
323676 0.674023
323700 0.720133
323724 0.956556
323748 1.41809
323772 2.10824
323820 3.97374
323916 7.34361
324012 8.67381
324088 8.90991
324163 8.88255
324239 8.76318
324315 8.61888
324466 8.34058
324618 8.10735
324769 7.91698
324920 7.76023
325223 7.51673
325526 7.33328
325829 7.18689
326434 6.95904
327040 6.78045
327645 6.62929
328856 6.37144
330067 6.14451
331278 5.93527
331883 5.84046
332489 5.77053
332792 5.76907
332943 5.79315
333094 5.85518
333246 6.00173
333322 6.14248
333397 6.37442
333473 6.78237
333549 7.56603
333586 8.24123
333624 9.26179
333662 10.8526
333700 13.3405
333750 18.2245
333800 21.5848
333850 18.4992
333900 13.7152
333945 10.8475
333990 9.12704
334035 8.07404
334080 7.39890
334170 6.62455
334260 6.21574
334350 5.97069
334439 5.80962
334619 5.60959
334799 5.48586
334978 5.39669
335338 5.26363
336056 5.05533
336775 4.85702
337494 4.64069
338212 4.38258
338572 4.22617
338931 4.04722
339111 3.96207
339201 3.93464
339291 3.93905
339380 4.02431
339470 4.33303
339515 4.69350
339560 5.35965
339605 6.62935
339650 9.08613
339700 14.0647
339750 19.1355
339800 18.2375
339850 14.2531
339885 11.9526
339920 10.2748
339990 8.18613
340059 7.02548
340129 6.31471
340268 5.50493
340408 5.05451
340686 4.54214
340965 4.22339
341244 3.97976
341523 3.79384
341662 3.74986
341801 3.81240
341871 3.94365
341941 4.22711
342010 4.81968
342080 6.03752
342155 8.49018
342230 10.9872
342305 10.5236
342380 8.53842
342458 6.92321
342536 5.90488
342615 5.25214
342693 4.80772
342849 4.23936
343006 3.87698
343318 3.38949
343631 3.01600
344257 2.29975
344413 2.08805
344570 1.83916
344726 1.57450
344765 1.56788
344804 1.72672
344824 1.98263
344843 2.53093
344863 3.73071
344873 4.81062
344882 6.39563
344901 11.4142
344920 16.4882
344939 15.6886
344958 11.9520
344973 9.41053
344989 7.65060
345005 6.44477
345020 5.60100
345052 4.51966
345083 3.87367
345146 3.14607
345208 2.74309
345334 2.28543
345459 2.00724
345960 1.38109
346498 1.09227
346766 1.11495
347035 1.29107
347304 1.65161
347573 2.21101
348110 3.83125
349055 6.82714
350000 8.28668
350260 8.44392
351037 8.57257
351814 8.44467
352592 8.23188
353369 8.00308
354923 7.58169
356478 7.23276
358032 6.94615
359586 6.70662
362695 6.32381
365804 6.02295
368913 5.77224
375130 5.35807
387565 4.69135
400000 4.09771
400000 4.69903
400200 4.76192
400520 3.70200
400950 4.11020
401000 4.24687
401070 4.43820
401220 5.30800
401380 7.79780
401450 8.34060
401520 7.53280
401650 5.20530
401720 4.41730
401870 4.13370
401990 4.33680
402170 4.88170
402340 5.99550
402520 8.38250
402710 11.3350
402800 11.4320
402860 11.1120
403140 6.60180
403420 3.68940
403650 2.71900
403910 1.78890
404130 1.44510
404280 1.37400
404420 1.54620
404660 2.23400
405090 4.40690
405340 5.47910
405790 6.50090
406550 6.57180
408910 5.73240
409170 5.97600
409340 5.30670
409620 5.58060
409970 5.37850
411770 5.06760
411990 5.67200
412210 5.05200
415600 4.74700
416140 5.19200
416370 5.97050
416550 5.38050
416680 5.30170
416890 5.68410
417260 7.20950
417560 10.8980
417710 13.6450
417830 14.3630
417900 13.9470
418230 9.84920
418480 8.45050
418580 8.59390
418710 9.27590
419050 6.09711
419190 5.73231
419450 5.70011
419850 5.01710
421890 4.16470
425280 3.88930
428050 3.86000
428280 4.49010
428470 3.76400
429280 3.42180
430480 3.37860
430710 3.66210
430830 3.32410
431570 3.28750
431760 3.73590
431950 3.16850
432340 2.98590
433050 2.89430
433220 3.14970
433440 3.03100
433630 2.66570
434010 3.13290
434160 4.11940
434290 5.56310
434370 5.88200
434450 5.68210
434680 3.12260
434910 2.26370
435090 2.21770
435280 1.84360
435940 1.44130
436210 1.18550
436690 0.879210
437000 0.754970
437250 0.757730
437450 0.883850
437610 1.92600
438270 5.90860
439190 6.37950
439360 5.93580
439800 5.87750
440330 5.37490
442070 4.79780
442340 5.10360
442700 4.65840
444070 4.18450
445040 4.20160
445530 4.62940
445940 4.15590
446330 4.43890
447180 4.05090
447530 5.00580
447740 6.71150
447830 7.86290
447900 8.03850
447990 7.73430
448130 8.19750
448330 10.6380
448400 11.1490
448500 10.2900
448610 7.66270
448780 5.45320
448940 4.81650
449140 4.51320
449250 4.00790
450460 3.76250
450610 3.95000
450810 6.27630
450920 6.04500
451120 4.62170
451320 3.89240
451940 3.45230
452240 3.65420
452570 3.33620
453100 3.45180
454000 3.30780
454370 3.05430
454670 3.40860
454920 3.06191
456120 3.07610
456380 3.29320
456460 3.99300
456730 4.50660
456960 3.19200
457300 3.63280
457420 4.22530
457580 6.50010
457660 6.88710
457760 6.37660
457910 4.45530
458260 3.28560
458480 3.26390
458630 3.40130
458830 3.04740
459660 2.98080
459940 3.36110
460110 2.83510
460540 2.70550
462220 2.50340
463140 2.28510
463470 2.43060
463680 2.80220
463840 4.19370
463940 4.88860
464030 4.50170
464220 2.88320
464440 2.05040
464910 1.95320
465290 1.62960
465480 1.52470
465830 1.43890
466740 1.01380
467260 0.838290
467910 0.506730
468370 0.498950
468800 0.611890
469010 0.912240
469500 3.09130
469910 4.76090
470190 5.23410
470530 5.56020
471180 5.51080
473490 4.37770
473700 4.63100
474080 4.42680
474460 4.03090
477890 3.53640
480110 3.38670
480250 3.60660
480440 4.73000
480640 7.21970
480740 7.45280
481020 4.15670
481220 3.32440
482960 3.01820
484350 2.96340
484690 3.41860
484860 4.03060
485130 3.44980
485730 3.04940
486390 2.99470
487070 3.21580
487500 2.93360
487780 3.14190
488540 3.05610
488850 3.49790
489130 4.75020
489340 7.66190
489410 8.07950
489480 8.16160
489580 7.36800
489690 7.10840
489790 7.47690
490030 10.0030
490130 9.69560
490270 8.34610
490390 6.34610
490650 4.29630
491010 3.40011
491300 3.36301
491500 2.83490
492970 2.59000
493210 3.16620
493330 3.91590
493460 3.69450
493710 2.61390
496050 1.94560
497120 1.50640
497390 1.52330
497530 1.82460
497750 1.30870
497960 1.12230
498290 1.06210
498500 1.27010
498630 1.86310
498830 3.25210
498900 3.52800
499000 3.15260
499130 1.25400
499250 1.08380
499410 1.27020
499640 2.68160
500000 4.10530
500250 4.90040
500500 5.13140
500890 5.18940
501730 4.56620
502100 4.69290
502300 4.41500
502450 4.57800
502620 5.47890
502840 7.81381
502950 8.40231
503030 7.77721
503250 5.11971
503450 4.18400
503810 3.65260
504440 3.60670
504720 3.82570
505030 3.54850
505940 3.17880
507350 2.84370
507710 3.56020
508190 2.80900
509190 2.82030
509820 3.23650
510470 3.97690
510730 4.78480
511200 9.93770
511420 8.90090
511660 5.79000
512050 4.29940
512180 4.02330
512350 4.32250
512700 7.08420
512830 7.52350
512940 7.08530
513130 4.80780
513330 3.83770
513780 3.50230
514260 3.90670
514560 3.37520
515430 3.10940
516760 2.88350
525240 2.53460
525480 2.77640
525860 2.57370
526300 2.56520
526430 2.80690
526700 4.01690
526800 4.94591
526910 5.19641
527000 4.69471
527230 2.79971
527840 2.45660
529850 2.43430
530010 2.74510
530380 2.48010
530800 2.52700
530970 2.77610
531350 4.99930
531620 3.15830
531930 2.44880
532400 2.16020
532620 2.18350
533030 3.61980
533150 3.78860
533230 3.47870
533410 2.40200
534670 1.58280
535060 1.01640
535320 0.825890
535510 1.00860
535580 3.73060
535640 4.46490
535990 3.12760
536340 2.69780
536820 2.48570
537060 2.55210
537440 2.87850
537750 3.71100
537960 5.35190
538160 8.11360
538280 8.69650
538380 8.28780
538720 5.03930
539130 3.34081
539590 2.82050
540090 2.53170
540810 2.32370
543050 2.11520
543440 2.49700
543720 3.47850
543920 4.94830
544050 4.57760
544330 3.02940
544450 2.86580
544780 4.14910
545160 9.15580
545260 9.54600
545700 4.39240
545970 3.45630
546490 3.09800
546750 2.69320
547370 2.36650
549380 2.28070
549860 2.04220
550230 2.04740
550510 2.23950
550940 1.94101
551380 1.92500
551490 2.08250
551730 2.73320
551950 3.88450
552050 3.70410
552320 2.15570
552670 1.87530
553120 1.64770
554210 1.47060
555390 1.36960
555830 1.62250
556230 1.33430
556750 1.15590
557250 1.25990
557590 1.88480
557830 3.11870
558290 8.45120
558410 7.55270
558620 4.49690
558980 2.66420
559790 1.20790
559990 1.18220
560320 2.49530
560680 6.30230
560860 9.28590
560970 9.60580
561310 6.74570
561630 5.48570
562200 4.25020
562970 3.49641
563840 3.06740
564490 3.09330
564850 4.17310
564940 4.80980
565340 2.82020
566210 2.54280
566510 2.65230
566830 2.92480
567150 2.46760
568120 2.45590
568490 2.98720
568670 3.63200
568770 4.45850
568870 4.65760
569000 4.25870
569120 3.16630
569340 2.50190
569620 2.24230
570940 2.17320
571190 2.54870
571660 2.04600
572770 1.91290
573070 1.99380
573240 2.35200
573610 1.89550
574000 1.78580
574320 1.58960
574460 1.39290
574670 1.47380
574710 1.76830
574800 3.57141
574950 3.12591
575180 3.02241
575520 3.51380
576140 5.41670
576850 9.62620
577000 9.97240
577120 9.71400
577960 5.61310
578320 4.70530
578710 4.36030
578920 4.63210
579300 7.29440
579430 6.95050
579540 5.15950
579810 3.56270
580300 3.12100
580550 3.34180
581010 2.67880
583920 2.21220
586370 2.00530
587280 2.02261
587870 2.19180
589080 1.83530
589510 2.11340
589780 3.48790
589860 3.67360
590000 3.03310
590230 1.98040
590660 1.81020
590830 2.14590
591070 1.69500
591530 1.53730
593990 1.60110
594330 2.37040
594640 3.42460
594890 2.85810
595180 2.95870
595440 2.75310
595610 1.86230
596130 1.83620
596500 1.92360
596720 2.11390
597170 1.79300
598000 1.61960
598400 1.75230
598620 2.11780
599040 1.75631
599390 1.57210
600000 1.49510
600250 1.46370
600530 1.57200
601090 1.39290
602570 1.26130
602970 2.88650
603270 2.48340
603480 1.76810
604700 1.43880
605620 1.49500
607050 1.18740
607200 1.47780
607560 1.02710
608080 0.853700
609330 1.04800
609410 1.65120
609540 1.80690
609830 1.00540
610000 0.963360
611180 0.671720
611930 0.645770
612480 0.797161
613030 1.65580
613410 3.44500
613520 4.54260
613690 4.82840
613860 4.64470
614020 5.34370
614170 6.40940
614360 6.69560
614740 5.10610
614930 4.55770
615260 4.39940
616220 2.85800
616890 2.81560
617260 2.49210
617960 2.27920
618160 2.68890
618410 2.14320
619990 1.75890
620240 1.76900
620550 2.23940
620940 1.77410
621720 1.50100
622150 1.59210
622810 1.60721
623040 2.17361
623350 2.49720
623780 1.64780
624150 1.45050
625800 1.27850
626000 2.02700
626210 1.98650
626640 1.41510
627240 1.27360
628190 1.29370
628800 1.20270
629570 1.21300
629960 1.40010
630180 2.18870
630490 3.41670
630640 3.01830
630900 1.33940
631460 1.03600
631970 1.00550
632410 1.03570
632650 1.51630
632840 2.41580
633170 2.08170
633270 1.48080
633660 1.31400
634570 1.55670
635200 1.18951
635510 1.33310
635690 2.02160
636080 1.74180
636220 1.46270
636440 1.86600
636680 3.41370
636940 4.06340
637300 1.15050
637580 0.988040
638680 0.754050
639730 0.742780
640000 0.689760
640230 0.644380
640690 0.647760
640790 1.21100
640910 1.41590
641090 1.22240
641340 0.679130
642060 0.699370
642470 0.820650
643320 0.837870
643550 1.64750
643800 1.51370
643980 1.09800
644410 1.12400
644920 1.59700
645020 2.43900
645310 3.59780
645570 5.93670
645860 8.01920
646060 8.73960
646590 3.81340
646960 2.01961
647280 1.36930
648000 1.00000
648810 0.715100
649390 0.654400
650400 0.585000
651690 0.553700
652110 0.621800
652520 1.88840
652810 3.47290
652960 3.85960
653250 2.29730
653520 1.14520
654130 0.902520
654560 1.04670
655040 4.73360
655160 4.83850
655460 2.67710
655880 0.841860
656360 0.887490
656540 1.00830
656800 2.57120
657110 5.30960
657260 6.08300
657380 6.05130
657650 5.27760
657850 5.36310
657980 4.83880
658440 1.79740
659180 1.22860
660000 1.19360
660030 1.18960
660510 1.09540
661570 1.49840
661960 1.47220
662390 1.61960
662620 2.22590
662760 2.10570
662990 1.66320
663360 1.56780
664120 1.80170
664590 2.53880
664850 3.61800
665030 3.87280
665160 3.66530
665410 2.73780
666050 2.36940
668430 2.93260
669270 3.42340
670090 3.68670
670290 4.71550
670480 6.01060
670670 6.30701
670960 4.28761
671580 3.61430
672340 4.91470
672500 4.83400
672640 4.22810
673430 4.15670
674370 4.53190
674830 4.09720
675180 4.62100
675500 3.99550
675890 4.29970
677700 3.99580
679470 4.00120
679960 4.59310
680390 3.83040
680870 4.22940
681390 3.50270
682760 3.22241
683200 3.87210
683540 3.21670
683690 3.12780
683930 3.42610
684250 4.27320
684380 5.69830
684460 6.04110
684620 5.52840
685180 2.74580
685630 2.46590
687760 1.65580
688170 1.68560
688530 2.42380
688760 3.68830
688910 4.33130
689090 4.07420
689500 1.86270
689880 1.63800
690000 2.15380
690220 3.09980
690430 3.49280
690530 3.20730
690920 1.19910
691190 0.984880
691940 0.682560
692170 0.682480
692410 0.916810
692930 2.39900
693270 3.89900
693470 4.18340
693700 4.30920
693980 4.06570
694410 4.79740
695010 8.28631
695270 8.48300
695660 7.55700
696020 5.04150
696470 2.93480
697690 1.89180
699190 1.31640
700000 1.16200
701280 0.918000
701580 1.40040
702040 0.957400
702300 0.843001
703890 0.753700
706150 0.832290
710000 1.69760
710490 1.80770
712780 2.54010
713680 3.68750
714300 3.03790
714450 3.05840
714730 3.42830
714940 4.06680
715130 4.25860
715290 3.77970
715630 3.94080
715970 5.05260
716150 6.04090
716300 6.36430
716490 6.28440
716660 5.52540
717230 4.52580
717580 4.25820
719150 4.03310
719460 4.18610
720080 4.49100
720710 6.04180
720860 5.85830
721250 6.33010
721760 4.72040
722260 4.29690
724800 4.34060
725320 4.46150
726030 5.24270
726560 6.80140
727040 9.84340
727210 9.33650
727580 6.57670
728030 4.57850
728730 3.50590
730340 3.17470
730680 3.63221
730900 4.42281
731070 4.57060
731210 4.27640
731580 2.84290
735240 1.69240
735770 1.66320
736340 2.50130
736650 4.90020
736990 8.70220
737180 8.20680
737550 4.77300
737860 2.84300
738250 1.86780
739210 1.07800
739800 1.11720
740000 1.22450
741070 1.79920
741460 2.53090
742680 3.53511
744250 4.36420
744680 5.04650
744820 5.90560
745040 5.93330
745550 4.41290
746700 3.55470
748080 3.19410
748420 3.28190
748930 4.18840
749320 6.41160
749550 6.97380
749670 6.65030
750020 4.65870
750740 2.21580
751360 1.61980
751700 1.77450
752190 3.40760
753170 5.00430
754110 5.54090
754710 7.12441
755340 10.8820
755490 11.3820
755670 10.6270
756120 7.54320
756790 5.23080
757640 4.13430
758620 4.50390
758860 3.91970
760000 3.44940
760940 3.06180
762970 2.51360
763480 2.56100
763950 3.24040
764380 3.19290
764580 2.34670
764910 2.32290
765290 3.22820
765650 4.76820
765850 5.84790
766070 6.25620
766590 3.74111
767170 2.19180
767900 1.53640
768440 1.56000
769620 3.27670
769920 4.32700
770140 5.74550
770350 6.06940
770530 5.88150
770720 5.16690
770910 4.99750
771410 5.47940
771980 4.43870
772810 4.40680
773200 4.12680
775260 4.14630
775880 3.88610
776640 4.21140
777010 4.84090
777370 4.93940
777550 4.15980
777790 3.59390
778410 3.61991
778950 4.42521
779660 6.63510
779850 5.94760
780250 3.95130
780610 3.17780
781390 3.67170
781980 5.90400
782170 5.69360
782540 3.65880
783130 2.87190
783630 2.88560
784310 3.36630
785180 5.22900
785560 5.75950
786240 5.43490
786810 5.69470
787280 7.03800
787810 9.99670
787950 11.2320
788140 11.6210
788330 11.2090
788720 7.95930
788960 6.45350
789340 5.54260
790000 4.96380
791180 3.92780
791680 3.85290
791890 3.49460
792100 3.41940
792680 3.92870
793070 5.09960
793270 5.10930
793860 3.71220
794400 3.69120
794630 4.12430
795040 4.28560
795610 3.31080
799910 2.78810
800000 2.81910
800740 3.09220
801390 2.84340
802290 2.85530
802880 3.57191
803120 4.32920
803600 6.51750
803840 6.65580
804010 5.74910
804400 4.08620
804810 3.35970
805090 3.17430
805330 3.35950
805830 4.66990
806000 4.44390
806240 3.73420
806830 3.08510
807370 2.74540
810000 2.39760
811200 2.23880
812570 2.12590
812940 2.22740
813130 2.72770
813720 3.76430
814190 2.72740
814630 2.54291
814970 2.78750
815320 3.51420
815560 4.63470
815840 5.18180
816210 4.93920
816470 3.87130
816810 3.03760
817420 2.65580
818220 2.68650
818700 3.13910
819070 4.15720
819310 4.47920
819700 3.02570
819900 2.39540
820520 2.16030
821570 1.94040
822590 1.81910
823430 1.53850
824320 1.05330
824630 1.03830
824900 3.29740
825070 4.59480
825120 4.50311
825120 4.50274
825400 3.98960
825740 3.36580
826120 2.94130
826610 3.21450
827140 4.61730
827610 7.59860
827850 7.77230
828520 3.49500
829090 2.44850
830210 1.87220
831540 1.65200
832090 1.43240
832450 1.51540
832850 2.53990
833110 2.64580
833510 2.06210
833830 1.95600
834160 2.76660
834580 4.60210
834780 5.93690
834980 6.25530
835510 3.66210
835940 2.15280
836450 1.38660
836960 1.08350
838070 1.28060
839160 3.39700
839660 3.67250
840000 3.54870
840520 3.36040
841370 2.73650
841800 2.53690
842500 2.51060
843230 2.94440
843660 3.79310
844410 7.56380
844640 7.92931
844800 7.67500
845140 5.25810
845620 3.66370
846050 2.77090
847490 2.03430
848370 1.81740
849100 1.78320
849420 2.57100
849650 2.52820
849990 1.58360
850400 1.47900
850560 1.79110
851010 3.37780
851150 3.60240
851400 2.87540
851830 1.80880
852720 1.21940
853520 1.02880
854310 1.02020
854720 1.25430
855240 1.69610
856200 3.33420
856860 3.62050
857500 3.64630
858230 4.16630
858570 3.48180
859640 2.95180
859970 2.70620
860460 2.69090
861100 2.95010
861120 2.96360
861500 3.68090
861770 3.57000
862000 3.23451
862180 2.97010
862270 2.93460
862500 2.83990
862750 2.73690
863000 2.77640
863350 2.83550
863780 3.95920
864000 5.23540
864290 6.91380
864460 7.37030
864640 6.90720
865000 5.05240
865210 3.96470
865610 3.29731
866000 3.85940
866070 3.96530
866410 3.89700
867000 3.16260
867120 3.01731
867580 2.78270
867900 3.22460
868000 3.15120
868750 2.64580
869000 2.63820
870000 2.66820
870530 2.74430
871000 3.52940
871440 3.82150
871640 4.26110
872000 4.55600
872100 4.62520
872760 3.47950
873000 3.32740
873420 3.01020
873820 3.45620
873900 4.02550
874000 4.15390
874100 4.27650
874360 3.78290
874760 2.66810
875000 2.52980
875390 2.32710
875930 2.42660
876000 2.35250
876360 2.00101
876730 2.44860
877000 2.62160
877110 2.69200
877360 2.45611
877620 2.05400
878000 1.93330
879000 1.62020
879680 1.40170
880000 1.38970
880620 1.37150
880910 1.19730
881000 1.19910
881420 1.22001
881940 2.72730
882000 2.83220
882450 3.60890
883000 3.41830
884000 3.06930
885000 2.72280
885100 2.68340
885800 2.26190
886000 2.27900
886600 2.32800
887000 3.50090
887100 3.79940
887250 3.89590
888000 2.56390
888900 2.54950
889000 2.68950
889190 2.95320
889610 3.27390
890000 3.01160
890550 2.18800
891000 1.96910
891360 1.77300
892000 1.64860
893000 1.55470
893850 1.50920
894000 1.46610
894260 1.39870
895000 1.47930
895140 1.49590
895500 2.09400
896000 2.59800
896210 2.80920
896560 1.88350
897000 1.58410
897250 1.41211
897840 1.12480
898000 1.12770
898190 1.13420
898570 2.50170
899000 3.01470
899260 3.33110
899760 2.87870
899960 2.86520
900000 2.95400
900580 4.19550
900830 4.50831
901000 4.20340
901310 3.64500
901620 3.55680
901930 3.70980
902000 3.54150
902300 2.82050
902500 2.67710
902720 2.39190
903000 2.24500
903170 2.14770
903590 2.03620
903850 2.12780
904000 2.53590
904070 2.72380
904320 2.99170
904580 2.84510
905000 2.15770
905310 1.97710
906000 1.85540
906750 1.86050
907000 2.01020
907370 2.23520
907620 2.85010
907900 3.02150
908000 2.72180
908300 1.83090
909000 1.68930
909100 1.67100
910000 1.61850
911000 1.58070
911030 1.58250
911370 1.90430
911730 2.14791
912000 1.91260
912210 1.72850
912720 1.63070
913000 1.66390
913390 1.71830
913620 2.65500
914000 3.02230
914410 2.91291
915000 4.24840
915170 4.62400
915420 4.41000
915900 2.72360
916000 2.48740
916270 1.84080
917000 1.32610
917140 1.22640
917620 0.958340
918000 0.972930
918270 0.983060
918610 2.07450
919000 2.82940
919060 2.94770
919310 3.04520
919680 2.25020
920000 2.08410
920400 1.88821
921000 1.84620
921370 1.82590
922000 2.06810
922110 2.11220
923000 1.75360
923320 1.63090
924000 1.57550
924260 1.55730
924970 3.31260
925000 3.31411
925560 3.41230
926000 3.31151
926010 3.28250
926630 1.86060
927000 1.66840
927120 1.60080
928000 1.47580
928400 1.41860
929000 1.38570
930000 1.39830
931000 1.43220
931100 1.44390
931930 1.75320
932000 1.93310
932900 4.29070
933000 4.26020
934000 3.83350
934200 3.71190
935000 2.36090
935310 1.80030
935500 1.69010
936000 1.49420
936020 1.48350
936540 1.11540
937000 1.04120
937130 1.02860
937780 1.16330
937840 1.81760
938000 1.95520
938040 1.99120
938360 1.87390
939000 1.37390
939050 1.34060
940000 0.887830
940120 0.833711
940570 0.794570
941000 0.843571
941130 0.860180
941480 2.08600
942000 2.49940
942130 2.60190
942880 1.84851
943000 1.78930
944000 1.31610
944540 1.06770
945000 0.982180
945680 1.05910
946000 2.14190
946160 2.67950
946360 3.14340
946720 2.82730
947000 2.04740
947170 1.56630
947460 1.37300
948000 1.50090
948110 1.52120
948430 3.54870
948720 4.18270
949000 3.74430
949250 3.35180
949860 1.80231
950000 1.67020
950400 1.30280
951000 1.13500
951700 0.955390
952000 0.910790
953000 0.777680
953190 0.753500
954000 0.791980
954760 0.837970
955000 0.823430
955800 0.788940
956000 0.827210
956300 0.889731
957000 1.08100
957120 1.11300
957440 1.71830
957940 2.06380
958000 2.03000
958330 1.85190
958800 1.04210
959000 0.978330
959190 0.922510
959980 1.55410
960000 1.67450
960370 3.83011
960910 5.49711
961000 5.57020
961480 5.95060
961800 5.76660
962000 5.33140
962550 4.10560
963000 3.89240
964000 3.41150
964840 3.01250
965000 2.83170
965380 2.40820
965880 2.78220
966000 2.65120
966560 2.07010
966950 1.86090
967000 1.87310
967240 1.94430
968000 5.04280
968090 5.40090
968380 5.60560
968630 5.47200
969000 4.90970
969420 4.91470
969670 4.57010
970000 3.62500
970060 3.45080
970920 3.07350
971000 3.11180
971490 3.36570
971920 4.70040
972000 4.78760
972280 5.09850
972710 4.83900
973000 4.11130
973710 2.32370
974000 2.11270
974820 1.52100
975000 1.50670
975100 1.49840
975760 1.53880
976000 2.50200
976070 2.78650
976430 2.74780
976790 2.44071
977000 2.55900
977280 2.71760
977550 2.55870
977960 1.46930
978000 1.45700
978300 1.35560
979000 1.29670
979080 1.29190
980000 1.29330
980150 1.29950
980960 1.58090
981000 1.62730
981680 2.42260
982000 2.63920
982560 2.98660
983000 2.86800
983110 2.83160
983370 2.46000
983820 2.39290
984000 2.43140
984180 2.46750
985000 3.06431
985080 3.12341
986000 3.56501
986160 3.65030
986900 3.49000
987000 3.57900
987740 4.25020
988000 4.01810
988200 3.84360
988730 2.94200
989000 2.74170
989190 2.59280
989440 2.49060
989700 3.18270
990000 3.43140
990250 3.62270
990560 2.44110
991000 2.17950
991630 1.82830
991950 2.25750
992000 2.15640
992220 1.73110
992820 1.59560
993000 1.65550
993520 1.85031
993840 2.75550
994000 2.96840
994070 3.05870
994510 2.82530
994920 1.93890
995000 1.90090
995580 1.63370
996000 1.55420
996270 1.49840
997000 1.57950
997100 1.59240
997400 1.59030
998000 1.74920
998240 1.82320
999000 3.29090
999050 3.38840
999350 4.75501
999630 5.36410
999940 5.32890
999999 5.19074
1.00000E+06 5.18605
1.00040E+06 4.24950
1.00100E+06 4.24180
1.00200E+06 4.17090
1.00240E+06 4.12700
1.00300E+06 4.42780
1.00330E+06 4.57530
1.00400E+06 4.16070
1.00500E+06 3.58300
1.00560E+06 3.23580
1.00600E+06 2.10910
1.00700E+06 1.71910
1.00750E+06 1.76990
1.00800E+06 2.54981
1.00880E+06 3.79210
1.00900E+06 3.72370
1.01000E+06 3.36930
1.01100E+06 2.69660
1.01130E+06 2.49920
1.01200E+06 2.49910
1.01240E+06 2.50620
1.01300E+06 2.32450
1.01370E+06 2.12320
1.01400E+06 2.12920
1.01460E+06 2.12330
1.01490E+06 2.65050
1.01500E+06 2.50430
1.01540E+06 1.90670
1.01600E+06 1.70460
1.01700E+06 1.45441
1.01740E+06 1.35060
1.01800E+06 1.33400
1.01820E+06 1.32900
1.01850E+06 1.47380
1.01870E+06 1.84160
1.01890E+06 2.00020
1.01900E+06 1.87640
1.01950E+06 1.26390
1.02000E+06 1.18450
1.02050E+06 1.01130
1.02100E+06 0.960750
1.02150E+06 0.917210
1.02200E+06 0.899230
1.02230E+06 0.893140
1.02260E+06 0.931860
1.02300E+06 1.10120
1.02330E+06 1.22830
1.02370E+06 2.62220
1.02390E+06 2.90380
1.02400E+06 2.61740
1.02440E+06 1.46600
1.02480E+06 1.10470
1.02500E+06 1.09270
1.02530E+06 1.01120
1.02580E+06 2.28970
1.02600E+06 1.91550
1.02620E+06 1.53890
1.02630E+06 1.35090
1.02680E+06 1.21360
1.02700E+06 1.22420
1.02760E+06 1.26390
1.02800E+06 1.36740
1.02900E+06 1.66150
1.02950E+06 2.17411
1.03000E+06 3.13480
1.03080E+06 3.26100
1.03100E+06 3.16790
1.03200E+06 2.67270
1.03280E+06 2.67210
1.03300E+06 2.83180
1.03350E+06 3.22800
1.03400E+06 3.25530
1.03430E+06 3.27980
1.03490E+06 3.00060
1.03500E+06 3.04940
1.03600E+06 3.54800
1.03610E+06 3.60020
1.03700E+06 2.94180
1.03770E+06 3.18500
1.03780E+06 3.89610
1.03800E+06 3.94520
1.03830E+06 4.02410
1.03870E+06 3.86890
1.03900E+06 3.38670
1.03920E+06 3.07190
1.03970E+06 2.86240
1.04000E+06 3.14390
1.04030E+06 3.42690
1.04100E+06 4.68430
1.04150E+06 5.56610
1.04190E+06 5.46280
1.04200E+06 4.99770
1.04240E+06 3.13210
1.04280E+06 2.88050
1.04300E+06 3.01570
1.04320E+06 3.14930
1.04370E+06 4.33740
1.04400E+06 4.43050
1.04420E+06 4.48470
1.04480E+06 5.71430
1.04500E+06 5.61770
1.04520E+06 5.50700
1.04600E+06 3.68510
1.04620E+06 3.22760
1.04700E+06 2.46220
1.04770E+06 1.81500
1.04800E+06 1.72730
1.04810E+06 1.70190
1.04860E+06 1.84090
1.04900E+06 3.40100
1.05000E+06 3.37380
1.05090E+06 3.34880
1.05100E+06 3.25731
1.05170E+06 2.61180
1.05200E+06 2.53250
1.05220E+06 2.48750
1.05300E+06 2.47890
1.05400E+06 2.49370
1.05410E+06 2.49120
1.05500E+06 2.99150
1.05570E+06 3.38140
1.05600E+06 3.37470
1.05620E+06 3.36220
1.05700E+06 2.94190
1.05780E+06 2.48820
1.05800E+06 2.44710
1.05880E+06 2.28090
1.05900E+06 2.28320
1.05950E+06 2.30040
1.06000E+06 3.02941
1.06040E+06 3.62220
1.06080E+06 4.06910
1.06100E+06 3.83770
1.06150E+06 3.27580
1.06200E+06 3.50940
1.06230E+06 3.65850
1.06300E+06 3.71250
1.06320E+06 3.72261
1.06400E+06 4.15900
1.06500E+06 4.71270
1.06600E+06 4.95540
1.06630E+06 5.00860
1.06700E+06 4.71330
1.06750E+06 4.47460
1.06800E+06 3.99330
1.06900E+06 3.00600
1.06910E+06 2.90800
1.07000E+06 2.13300
1.07080E+06 1.60650
1.07100E+06 1.52330
1.07140E+06 1.37540
1.07200E+06 1.43330
1.07230E+06 2.52410
1.07300E+06 3.25270
1.07310E+06 3.36240
1.07370E+06 2.58850
1.07400E+06 2.52280
1.07420E+06 2.48800
1.07500E+06 2.94140
1.07580E+06 3.47750
1.07600E+06 3.69920
1.07670E+06 4.44530
1.07700E+06 4.59740
1.07710E+06 4.64010
1.07800E+06 3.71940
1.07870E+06 2.79140
1.07900E+06 2.72470
1.08000E+06 2.41900
1.08100E+06 2.08740
1.08110E+06 2.05790
1.08200E+06 1.99680
1.08300E+06 3.46070
1.08310E+06 3.60890
1.08390E+06 1.98370
1.08400E+06 1.93690
1.08500E+06 1.49060
1.08600E+06 1.33350
1.08630E+06 1.29050
1.08700E+06 1.30180
1.08800E+06 1.29900
1.08880E+06 1.31670
1.08900E+06 1.59630
1.09000E+06 3.03250
1.09060E+06 3.15830
1.09100E+06 2.96480
1.09170E+06 2.62410
1.09200E+06 2.36200
1.09280E+06 1.69380
1.09300E+06 1.64890
1.09350E+06 1.55500
1.09400E+06 1.59500
1.09440E+06 1.63690
1.09500E+06 2.89650
1.09510E+06 3.10180
1.09590E+06 3.36170
1.09600E+06 3.27490
1.09700E+06 2.37090
1.09730E+06 2.08780
1.09800E+06 1.91040
1.09850E+06 2.68570
1.09900E+06 2.00900
1.09920E+06 1.73490
1.10000E+06 1.23670
1.10080E+06 1.07770
1.10100E+06 1.12170
1.10160E+06 1.27260
1.10200E+06 2.69560
1.10210E+06 3.05050
1.10230E+06 3.48280
1.10300E+06 2.53091
1.10340E+06 1.98770
1.10400E+06 1.68570
1.10430E+06 1.54000
1.10500E+06 1.48630
1.10520E+06 1.46810
1.10590E+06 2.32161
1.10600E+06 2.19500
1.10660E+06 1.44590
1.10700E+06 1.32120
1.10750E+06 1.17170
1.10800E+06 1.10020
1.10860E+06 1.02000
1.10900E+06 1.11290
1.10940E+06 1.20050
1.10990E+06 2.72170
1.11000E+06 2.85730
1.11020E+06 3.12180
1.11070E+06 2.01300
1.11100E+06 1.28020
1.11150E+06 1.07090
1.11200E+06 0.970070
1.11210E+06 0.947790
1.11300E+06 1.24590
1.11310E+06 1.29450
1.11400E+06 3.74710
1.11450E+06 5.10150
1.11490E+06 4.69320
1.11500E+06 4.38940
1.11580E+06 1.90850
1.11600E+06 1.76570
1.11610E+06 1.69230
1.11640E+06 1.41730
1.11700E+06 1.21940
1.11730E+06 1.12830
1.11800E+06 1.03550
1.11840E+06 0.996630
1.11890E+06 1.07000
1.11900E+06 1.46030
1.11970E+06 4.20620
1.12000E+06 4.60560
1.12010E+06 4.73330
1.12100E+06 4.86980
1.12140E+06 4.93030
1.12200E+06 4.56210
1.12270E+06 4.10930
1.12300E+06 4.23910
1.12390E+06 4.61110
1.12400E+06 4.56270
1.12480E+06 4.12030
1.12500E+06 3.83240
1.12600E+06 2.33590
1.12680E+06 1.78740
1.12700E+06 1.77580
1.12760E+06 1.77580
1.12800E+06 2.79840
1.12830E+06 3.56680
1.12870E+06 4.02390
1.12900E+06 3.54080
1.12910E+06 3.37630
1.12960E+06 2.15100
1.13000E+06 2.02220
1.13060E+06 1.72961
1.13100E+06 1.70230
1.13170E+06 1.64850
1.13200E+06 1.82550
1.13230E+06 1.99520
1.13300E+06 1.68380
1.13320E+06 1.60220
1.13390E+06 1.48770
1.13400E+06 1.51440
1.13500E+06 1.82750
1.13580E+06 2.91970
1.13600E+06 3.49560
1.13640E+06 4.65910
1.13680E+06 4.99780
1.13700E+06 4.79340
1.13710E+06 4.69390
1.13800E+06 3.44410
1.13810E+06 3.30370
1.13840E+06 2.79810
1.13900E+06 2.53900
1.14000E+06 2.07650
1.14010E+06 2.02980
1.14100E+06 1.72770
1.14150E+06 1.57250
1.14200E+06 1.56570
1.14240E+06 1.57720
1.14300E+06 2.24780
1.14340E+06 2.69250
1.14400E+06 2.94420
1.14430E+06 3.06000
1.14490E+06 4.28480
1.14500E+06 4.32100
1.14530E+06 4.40760
1.14560E+06 4.03570
1.14600E+06 3.23311
1.14620E+06 2.82670
1.14660E+06 1.89540
1.14700E+06 1.63180
1.14740E+06 1.36870
1.14760E+06 1.29750
1.14800E+06 1.29500
1.14820E+06 1.29440
1.14890E+06 2.84701
1.14900E+06 2.71240
1.14970E+06 1.78830
1.15000E+06 2.48600
1.15040E+06 3.42090
1.15100E+06 4.25330
1.15130E+06 4.67100
1.15200E+06 3.88800
1.15300E+06 2.76960
1.15350E+06 2.21450
1.15400E+06 1.99640
1.15500E+06 1.57001
1.15550E+06 1.54050
1.15580E+06 2.03740
1.15600E+06 1.79550
1.15630E+06 1.43720
1.15700E+06 1.24630
1.15720E+06 1.19610
1.15770E+06 1.18600
1.15800E+06 1.22420
1.15850E+06 2.09920
1.15900E+06 2.46160
1.15910E+06 2.52820
1.16000E+06 1.86150
1.16050E+06 1.50230
1.16100E+06 1.42880
1.16120E+06 1.40210
1.16180E+06 1.51380
1.16200E+06 1.83530
1.16220E+06 2.15340
1.16290E+06 1.46460
1.16300E+06 1.43710
1.16380E+06 1.21530
1.16400E+06 1.22610
1.16460E+06 1.27710
1.16500E+06 2.14250
1.16520E+06 2.57730
1.16580E+06 2.12580
1.16600E+06 1.74550
1.16630E+06 1.17960
1.16670E+06 0.982390
1.16700E+06 0.953710
1.16760E+06 0.888310
1.16770E+06 0.896080
1.16800E+06 0.966611
1.16810E+06 0.988980
1.16860E+06 2.54360
1.16900E+06 2.94970
1.16920E+06 3.15690
1.17000E+06 2.53790
1.17020E+06 2.37960
1.17100E+06 2.32130
1.17120E+06 2.30120
1.17180E+06 3.26350
1.17200E+06 3.19030
1.17240E+06 3.03320
1.17300E+06 2.10890
1.17310E+06 1.95530
1.17400E+06 1.74230
1.17440E+06 1.61780
1.17500E+06 1.54450
1.17560E+06 1.48370
1.17600E+06 1.47470
1.17700E+06 1.46420
1.17770E+06 2.00120
1.17800E+06 2.78910
1.17840E+06 3.84140
1.17900E+06 3.95260
1.17920E+06 3.98360
1.17960E+06 4.67240
1.18000E+06 4.36110
1.18020E+06 4.20170
1.18100E+06 2.36340
1.18170E+06 2.27120
1.18200E+06 2.46920
1.18220E+06 2.59440
1.18240E+06 3.25260
1.18290E+06 3.61681
1.18300E+06 3.51110
1.18380E+06 2.63830
1.18400E+06 2.61230
1.18500E+06 2.48450
1.18600E+06 3.04930
1.18630E+06 3.22070
1.18700E+06 3.25660
1.18800E+06 3.30070
1.18820E+06 3.30710
1.18900E+06 3.74061
1.19000E+06 1.92230
1.19010E+06 1.74070
1.19100E+06 1.44770
1.19180E+06 1.18290
1.19200E+06 1.15950
1.19300E+06 1.03890
1.19350E+06 0.992200
1.19400E+06 0.848520
1.19500E+06 0.791150
1.19600E+06 0.862180
1.19630E+06 0.889120
1.19680E+06 1.21920
1.19700E+06 1.73710
1.19760E+06 3.28560
1.19800E+06 4.03371
1.19810E+06 4.21700
1.19870E+06 3.80300
1.19900E+06 3.02180
1.19950E+06 1.71740
1.20000E+06 1.43860
1.20050E+06 1.21420
1.20090E+06 1.15730
1.20100E+06 1.20200
1.20130E+06 1.32400
1.20160E+06 2.01400
1.20200E+06 2.18310
1.20210E+06 2.22540
1.20280E+06 1.86390
1.20300E+06 1.84110
1.20360E+06 1.80000
1.20400E+06 2.01080
1.20450E+06 2.29340
1.20500E+06 4.91270
1.20550E+06 6.15150
1.20600E+06 4.90750
1.20680E+06 2.90990
1.20700E+06 2.85260
1.20750E+06 2.71540
1.20800E+06 2.80440
1.20840E+06 2.87290
1.20880E+06 4.20580
1.20900E+06 4.50230
1.20930E+06 4.93260
1.20970E+06 4.25900
1.21000E+06 3.42010
1.21050E+06 2.01431
1.21100E+06 1.64200
1.21110E+06 1.56700
1.21160E+06 1.43710
1.21200E+06 1.46680
1.21220E+06 1.48180
1.21270E+06 2.14010
1.21300E+06 2.42660
1.21360E+06 2.03160
1.21390E+06 1.64330
1.21400E+06 1.62040
1.21490E+06 1.42430
1.21500E+06 1.48020
1.21530E+06 1.65080
1.21560E+06 2.30330
1.21590E+06 2.63590
1.21600E+06 2.51380
1.21660E+06 1.79201
1.21700E+06 1.45940
1.21740E+06 1.13800
1.21800E+06 0.973161
1.21810E+06 0.948640
1.21880E+06 0.888800
1.21900E+06 0.910320
1.21960E+06 0.971590
1.21970E+06 0.982190
1.22000E+06 0.994040
1.22030E+06 1.00790
1.22100E+06 1.33760
1.22130E+06 1.48760
1.22170E+06 3.03850
1.22200E+06 3.92240
1.22250E+06 3.15930
1.22300E+06 3.14860
1.22310E+06 3.14560
1.22370E+06 4.39130
1.22400E+06 4.39610
1.22460E+06 4.40940
1.22500E+06 4.72240
1.22550E+06 5.10700
1.22600E+06 6.21410
1.22650E+06 7.28330
1.22700E+06 8.08120
1.22800E+06 5.27860
1.22870E+06 3.29840
1.22900E+06 2.98570
1.22970E+06 2.27290
1.23000E+06 2.15390
1.23040E+06 2.00970
1.23080E+06 1.93680
1.23100E+06 2.04140
1.23130E+06 2.19770
1.23160E+06 4.66550
1.23190E+06 5.59190
1.23200E+06 5.43941
1.23280E+06 4.22090
1.23300E+06 4.15650
1.23400E+06 3.87010
1.23460E+06 3.69260
1.23500E+06 3.34710
1.23570E+06 2.73810
1.23600E+06 2.62630
1.23700E+06 2.26120
1.23790E+06 1.78590
1.23800E+06 1.77140
1.23870E+06 1.66470
1.23900E+06 1.68050
1.23940E+06 1.69410
1.23990E+06 2.43630
1.24000E+06 2.76690
1.24030E+06 3.75640
1.24080E+06 2.52240
1.24100E+06 2.50881
1.24180E+06 2.45870
1.24200E+06 2.85990
1.24230E+06 3.45980
1.24280E+06 2.96020
1.24300E+06 2.54960
1.24350E+06 1.53360
1.24390E+06 1.40030
1.24400E+06 1.40020
1.24480E+06 1.39380
1.24500E+06 1.44410
1.24540E+06 1.53990
1.24570E+06 2.38490
1.24600E+06 1.77080
1.24610E+06 1.56720
1.24650E+06 1.37630
1.24700E+06 1.38970
1.24710E+06 1.39450
1.24760E+06 1.73190
1.24800E+06 2.46330
1.24810E+06 2.64520
1.24870E+06 2.60050
1.24900E+06 2.29070
1.24910E+06 2.18700
1.25000E+06 2.00552
1.25040E+06 1.92080
1.25100E+06 1.89620
1.25120E+06 1.88720
1.25200E+06 3.84580
1.25270E+06 5.54570
1.25300E+06 5.14440
1.25360E+06 4.35160
1.25400E+06 4.24380
1.25500E+06 3.97320
1.25510E+06 3.93910
1.25590E+06 4.00830
1.25600E+06 4.19990
1.25660E+06 5.35600
1.25700E+06 5.12440
1.25720E+06 4.99820
1.25800E+06 3.93490
1.25870E+06 2.99950
1.25900E+06 2.98360
1.26000E+06 2.94790
1.26010E+06 2.94810
1.26100E+06 2.37320
1.26200E+06 1.73310
1.26230E+06 1.54720
1.26290E+06 1.47540
1.26300E+06 1.49340
1.26360E+06 1.62210
1.26400E+06 2.48070
1.26430E+06 3.56660
1.26470E+06 4.29550
1.26500E+06 3.94430
1.26600E+06 2.76790
1.26610E+06 2.64560
1.26700E+06 2.89860
1.26770E+06 3.07790
1.26800E+06 3.08630
1.26900E+06 3.08310
1.27000E+06 3.07700
1.27100E+06 3.03680
1.27200E+06 2.98450
1.27250E+06 2.97440
1.27300E+06 3.07050
1.27400E+06 3.29840
1.27500E+06 3.52530
1.27530E+06 3.59750
1.27600E+06 4.94281
1.27630E+06 5.51970
1.27660E+06 7.12730
1.27700E+06 6.53270
1.27800E+06 5.00070
1.27900E+06 3.44530
1.28000E+06 3.13540
1.28040E+06 3.01180
1.28100E+06 2.99190
1.28120E+06 2.97730
1.28180E+06 3.77020
1.28200E+06 3.65280
1.28230E+06 3.46910
1.28290E+06 2.38331
1.28300E+06 2.34140
1.28380E+06 2.03670
1.28400E+06 2.03600
1.28450E+06 2.03090
1.28500E+06 2.71290
1.28530E+06 2.68510
1.28580E+06 1.93180
1.28600E+06 1.83660
1.28660E+06 1.55620
1.28700E+06 1.50610
1.28800E+06 1.39750
1.28810E+06 1.38990
1.28860E+06 1.19300
1.28900E+06 1.16110
1.28910E+06 1.15760
1.28960E+06 1.19680
1.29000E+06 1.41640
1.29020E+06 1.53170
1.29070E+06 3.58620
1.29100E+06 4.22950
1.29150E+06 5.29400
1.29200E+06 5.21120
1.29300E+06 5.03880
1.29330E+06 4.98560
1.29400E+06 4.62910
1.29500E+06 4.09700
1.29570E+06 3.24520
1.29600E+06 3.22670
1.29680E+06 3.16180
1.29700E+06 2.97080
1.29770E+06 2.28920
1.29800E+06 2.26540
1.29850E+06 2.23700
1.29900E+06 2.65210
1.29960E+06 3.15020
1.30000E+06 3.12390
1.30060E+06 3.09840
1.30100E+06 2.59760
1.30150E+06 2.35930
1.30190E+06 2.43070
1.30230E+06 3.46960
1.30410E+06 2.53580
1.30510E+06 1.87500
1.30780E+06 1.30050
1.30840E+06 1.25350
1.30870E+06 1.26660
1.30920E+06 1.42750
1.31060E+06 1.51210
1.31100E+06 1.55130
1.31410E+06 2.11460
1.31640E+06 2.40680
1.31700E+06 3.47490
1.31720E+06 3.84640
1.31810E+06 5.32850
1.31960E+06 4.37410
1.32020E+06 3.91050
1.32100E+06 2.98720
1.32190E+06 2.72140
1.32280E+06 3.18860
1.32440E+06 4.16590
1.32570E+06 3.57790
1.32610E+06 3.26820
1.32770E+06 3.23440
1.32820E+06 3.74520
1.33000E+06 5.83050
1.33010E+06 5.70820
1.33050E+06 5.18860
1.33160E+06 2.76520
1.33190E+06 2.07210
1.33240E+06 1.98440
1.33310E+06 2.30510
1.33320E+06 2.35870
1.33420E+06 3.42350
1.33540E+06 3.68360
1.33600E+06 4.32380
1.33670E+06 5.15390
1.33750E+06 4.29650
1.33860E+06 2.96781
1.33900E+06 3.18640
1.33950E+06 3.42360
1.34070E+06 3.44640
1.34120E+06 3.05290
1.34160E+06 2.79470
1.34320E+06 2.72040
1.34340E+06 2.62570
1.34430E+06 2.20700
1.34490E+06 2.12640
1.34550E+06 2.09241
1.34620E+06 3.04600
1.34640E+06 3.08610
1.34680E+06 3.19260
1.34770E+06 2.86040
1.34790E+06 3.08580
1.34940E+06 4.43930
1.34980E+06 4.77450
1.35070E+06 3.34550
1.35090E+06 3.11190
1.35180E+06 2.04170
1.35290E+06 1.84320
1.35330E+06 1.83790
1.35370E+06 1.90850
1.35470E+06 3.37340
1.35670E+06 3.41190
1.35690E+06 3.70111
1.35720E+06 4.09080
1.35780E+06 4.27610
1.35860E+06 2.75550
1.35950E+06 2.36350
1.36050E+06 2.98230
1.36090E+06 3.38860
1.36170E+06 3.83380
1.36340E+06 1.87350
1.36450E+06 1.73470
1.36470E+06 1.71900
1.36620E+06 1.70320
1.36660E+06 2.32060
1.36710E+06 2.69890
1.36760E+06 1.95330
1.36830E+06 1.86870
1.36870E+06 2.90690
1.36910E+06 3.25790
1.37060E+06 1.54450
1.37070E+06 1.53240
1.37180E+06 1.24430
1.37230E+06 1.24140
1.37290E+06 1.43130
1.37320E+06 2.19880
1.37330E+06 2.47630
1.37380E+06 2.56950
1.37460E+06 1.86910
1.37540E+06 1.76350
1.37680E+06 2.42451
1.37740E+06 2.64880
1.37810E+06 2.62460
1.37900E+06 1.97610
1.37990E+06 1.96710
1.38050E+06 2.25620
1.38140E+06 2.40710
1.38150E+06 2.60470
1.38270E+06 4.93770
1.38300E+06 5.34500
1.38320E+06 5.63840
1.38450E+06 4.25140
1.38460E+06 4.27420
1.38530E+06 4.30670
1.38590E+06 5.67620
1.38630E+06 6.23060
1.38910E+06 2.75830
1.38930E+06 2.89400
1.38970E+06 3.18240
1.39040E+06 2.09950
1.39080E+06 2.13550
1.39140E+06 2.99750
1.39240E+06 1.90020
1.39640E+06 1.41600
1.39740E+06 1.42270
1.39980E+06 1.84490
1.40000E+06 2.00120
1.40020E+06 2.15230
1.40030E+06 3.78390
1.40150E+06 5.22780
1.40190E+06 4.64450
1.40280E+06 3.23070
1.40350E+06 2.60590
1.40430E+06 1.68510
1.40510E+06 1.39860
1.40520E+06 1.37630
1.40610E+06 1.31700
1.40670E+06 1.35850
1.40690E+06 1.38570
1.40760E+06 2.09200
1.40800E+06 2.33850
1.40860E+06 1.59740
1.40940E+06 1.46910
1.40990E+06 1.55090
1.41040E+06 1.64610
1.41140E+06 3.14470
1.41150E+06 3.22720
1.41220E+06 3.88210
1.41310E+06 4.30780
1.41360E+06 4.51540
1.41470E+06 3.10870
1.41500E+06 2.67611
1.41620E+06 2.47840
1.41720E+06 2.80370
1.41840E+06 1.95970
1.41940E+06 1.93350
1.42000E+06 3.74120
1.42070E+06 4.80810
1.42210E+06 3.12720
1.42340E+06 2.62025
1.42440E+06 2.23030
1.42570E+06 1.74470
1.42670E+06 1.73280
1.42750E+06 2.18950
1.42760E+06 2.34730
1.42830E+06 3.40040
1.42890E+06 3.81030
1.42930E+06 2.95360
1.42970E+06 2.11600
1.43070E+06 1.80680
1.43250E+06 2.03091
1.43260E+06 2.10370
1.43300E+06 2.41580
1.43330E+06 2.65771
1.43420E+06 3.13510
1.43500E+06 4.19140
1.43550E+06 3.90020
1.43580E+06 3.56600
1.43680E+06 2.24580
1.43760E+06 2.14480
1.43840E+06 3.27450
1.43910E+06 3.29610
1.43930E+06 3.31630
1.44030E+06 2.21710
1.44080E+06 2.14940
1.44100E+06 2.12860
1.44170E+06 4.36580
1.44210E+06 5.24650
1.44250E+06 4.85400
1.44410E+06 3.35860
1.44500E+06 3.45410
1.44580E+06 4.35550
1.44650E+06 5.19170
1.44740E+06 4.84780
1.44750E+06 4.79800
1.44910E+06 3.01800
1.44980E+06 3.02540
1.45120E+06 4.16010
1.45190E+06 4.06600
1.45250E+06 3.44760
1.45290E+06 3.06440
1.45750E+06 2.91570
1.45790E+06 2.87550
1.45920E+06 5.26020
1.45960E+06 6.01850
1.46060E+06 6.41550
1.46090E+06 6.08030
1.46150E+06 5.43580
1.46280E+06 5.61890
1.46420E+06 4.18060
1.46480E+06 3.54390
1.46540E+06 3.57920
1.46630E+06 4.08860
1.46760E+06 5.63330
1.46860E+06 5.40110
1.46930E+06 4.78750
1.47150E+06 2.63010
1.47410E+06 2.11230
1.47450E+06 2.08760
1.47660E+06 2.28490
1.47790E+06 2.07500
1.47880E+06 1.89820
1.48000E+06 1.87710
1.48100E+06 2.19670
1.48160E+06 3.07820
1.48260E+06 2.17840
1.48310E+06 2.17210
1.48440E+06 2.12990
1.48530E+06 3.02660
1.48620E+06 3.57370
1.48650E+06 3.47930
1.48750E+06 3.19310
1.48830E+06 2.79750
1.48970E+06 2.00260
1.49000E+06 1.94050
1.49170E+06 1.68690
1.49260E+06 3.55320
1.49320E+06 3.57310
1.49490E+06 2.10600
1.49520E+06 2.11940
1.49590E+06 2.10031
1.49700E+06 1.66250
1.49790E+06 1.27300
1.49890E+06 1.08240
1.49990E+06 1.04320
1.50000E+06 1.06420
1.50050E+06 1.17800
1.50080E+06 2.23490
1.50120E+06 2.65130
1.50190E+06 1.53300
1.50300E+06 1.45950
1.50400E+06 1.57310
1.50550E+06 1.69340
1.50580E+06 2.02390
1.50660E+06 3.01040
1.50720E+06 3.43090
1.50760E+06 2.91890
1.50770E+06 2.78990
1.50960E+06 3.77290
1.51070E+06 4.18360
1.51170E+06 3.82040
1.51290E+06 2.31060
1.51320E+06 1.86430
1.51450E+06 1.77910
1.51470E+06 1.89510
1.51630E+06 3.00170
1.51790E+06 2.99250
1.51830E+06 2.73240
1.51990E+06 1.65520
1.52130E+06 1.56960
1.52180E+06 3.67740
1.52210E+06 4.98600
1.52280E+06 5.77750
1.52360E+06 5.41790
1.52720E+06 3.60000
1.52850E+06 2.78701
1.53050E+06 3.80020
1.53090E+06 3.78070
1.53330E+06 3.87270
1.53530E+06 3.35911
1.53790E+06 3.56050
1.53940E+06 2.75520
1.54000E+06 3.34330
1.54130E+06 4.73700
1.54210E+06 5.21160
1.54360E+06 4.62220
1.54380E+06 4.50930
1.54470E+06 4.97650
1.54730E+06 4.99030
1.54740E+06 5.00240
1.54950E+06 3.47241
1.55000E+06 3.47520
1.55310E+06 3.49100
1.55430E+06 4.41750
1.55530E+06 4.75010
1.55660E+06 4.68920
1.55730E+06 4.60490
1.55840E+06 4.21260
1.56190E+06 3.40170
1.56500E+06 5.00250
1.56590E+06 4.50610
1.56890E+06 2.09100
1.57060E+06 1.72220
1.57180E+06 1.82330
1.57370E+06 2.08670
1.57480E+06 2.67370
1.57570E+06 3.03680
1.57710E+06 1.66190
1.57840E+06 1.60600
1.57910E+06 2.17260
1.58080E+06 3.64980
1.58100E+06 3.55591
1.58240E+06 2.86020
1.58290E+06 2.19230
1.58300E+06 2.05620
1.58410E+06 1.73280
1.58480E+06 2.00700
1.58520E+06 2.15750
1.58650E+06 3.35540
1.58860E+06 3.25640
1.58910E+06 3.25970
1.59060E+06 3.94800
1.59130E+06 4.27110
1.59280E+06 3.49170
1.59440E+06 4.09960
1.59460E+06 4.16940
1.59700E+06 3.18360
1.59950E+06 4.23940
1.60000E+06 3.95320
1.60060E+06 3.60820
1.60210E+06 2.54780
1.60240E+06 2.31321
1.60320E+06 1.96210
1.60410E+06 1.97920
1.60440E+06 2.00970
1.60600E+06 2.47530
1.60690E+06 2.78260
1.60810E+06 3.12000
1.60960E+06 2.58200
1.61190E+06 3.62790
1.61310E+06 4.30170
1.61380E+06 4.46970
1.61430E+06 4.46830
1.61940E+06 2.98300
1.61970E+06 3.03790
1.62170E+06 3.52850
1.62310E+06 3.74430
1.62440E+06 3.06870
1.62570E+06 2.96880
1.62690E+06 3.10271
1.62770E+06 3.08280
1.62820E+06 3.04380
1.62940E+06 2.40000
1.62970E+06 2.41480
1.63080E+06 2.52450
1.63200E+06 2.78580
1.63360E+06 3.41780
1.63460E+06 3.77840
1.63560E+06 3.53050
1.63590E+06 3.43760
1.63710E+06 2.67530
1.63870E+06 1.81910
1.63970E+06 1.77610
1.64140E+06 1.77550
1.64170E+06 1.72950
1.64320E+06 1.55050
1.64410E+06 1.63280
1.64470E+06 1.58500
1.64570E+06 2.07510
1.64770E+06 3.26170
1.64870E+06 3.74840
1.65000E+06 3.55470
1.65180E+06 2.79480
1.65390E+06 2.16410
1.65520E+06 2.67030
1.65590E+06 3.29830
1.65650E+06 3.73830
1.65740E+06 3.82770
1.65790E+06 3.87840
1.65910E+06 3.61730
1.66020E+06 1.86690
1.66150E+06 1.74970
1.66200E+06 1.83100
1.66260E+06 1.97490
1.66310E+06 2.53460
1.66350E+06 2.05710
1.66400E+06 2.02410
1.66470E+06 2.06600
1.66610E+06 3.32680
1.66700E+06 4.15860
1.66830E+06 3.84700
1.66960E+06 3.90480
1.67220E+06 4.25690
1.67360E+06 4.84540
1.67440E+06 4.51530
1.67850E+06 2.61090
1.68010E+06 2.25220
1.68090E+06 1.81030
1.68300E+06 1.78860
1.68370E+06 1.61540
1.68480E+06 1.74010
1.68500E+06 1.78020
1.68690E+06 2.84710
1.68730E+06 3.04110
1.68820E+06 2.97730
1.68930E+06 2.40400
1.69090E+06 2.49890
1.69150E+06 2.76390
1.69320E+06 2.09440
1.69410E+06 1.81470
1.69490E+06 2.04280
1.69530E+06 2.30240
1.69740E+06 3.48950
1.69760E+06 3.60890
1.69950E+06 3.59840
1.70000E+06 3.50720
1.70160E+06 3.24930
1.70170E+06 3.24040
1.70420E+06 3.19392
1.70440E+06 3.19020
1.70590E+06 2.89120
1.70980E+06 3.07840
1.71190E+06 2.01170
1.71400E+06 1.56190
1.71540E+06 1.73370
1.71660E+06 2.23501
1.71780E+06 2.77500
1.71880E+06 2.94670
1.72060E+06 3.17480
1.72250E+06 1.66300
1.72420E+06 1.48600
1.72540E+06 1.50610
1.72630E+06 1.83281
1.72670E+06 2.00170
1.72930E+06 2.70330
1.73090E+06 2.22610
1.73180E+06 2.22960
1.73210E+06 2.20890
1.73270E+06 1.88400
1.73400E+06 2.36640
1.73610E+06 3.26250
1.73750E+06 3.50061
1.73950E+06 2.01380
1.73980E+06 2.02180
1.74110E+06 2.19620
1.74270E+06 1.90640
1.74280E+06 1.88430
1.74350E+06 1.63710
1.74600E+06 2.00540
1.74710E+06 2.81110
1.74940E+06 4.56120
1.75000E+06 4.99785
1.75010E+06 5.07060
1.75160E+06 5.21030
1.75300E+06 3.99070
1.75380E+06 3.74340
1.75580E+06 3.25390
1.75720E+06 2.00530
1.75830E+06 2.03300
1.75850E+06 2.04881
1.75920E+06 1.80140
1.75980E+06 2.42580
1.76150E+06 3.12710
1.76270E+06 3.40570
1.76290E+06 3.43110
1.76440E+06 3.31970
1.76560E+06 2.17320
1.76720E+06 2.63010
1.76840E+06 2.13290
1.76950E+06 2.20540
1.77160E+06 2.52310
1.77170E+06 2.58600
1.77300E+06 3.35600
1.77400E+06 3.27730
1.77440E+06 3.25450
1.77590E+06 2.67590
1.77850E+06 2.81140
1.77880E+06 2.83010
1.78020E+06 3.54990
1.78080E+06 3.64370
1.78170E+06 3.69770
1.78310E+06 3.65040
1.78530E+06 2.17050
1.78600E+06 1.72810
1.78680E+06 2.22200
1.78810E+06 2.79420
1.78990E+06 2.11810
1.79130E+06 2.46040
1.79250E+06 2.06610
1.79450E+06 2.08900
1.79680E+06 2.17840
1.79910E+06 2.35130
1.80000E+06 2.39530
1.80140E+06 3.06690
1.80240E+06 3.59600
1.80480E+06 3.32970
1.80840E+06 2.18560
1.80980E+06 1.79290
1.81070E+06 1.77610
1.81110E+06 1.55060
1.81230E+06 2.07920
1.81430E+06 1.54600
1.81540E+06 1.58670
1.81580E+06 1.60680
1.81690E+06 1.91010
1.81840E+06 1.81900
1.82010E+06 2.21630
1.82160E+06 3.03060
1.82240E+06 3.02270
1.82480E+06 2.79670
1.82760E+06 2.71320
1.82950E+06 3.17440
1.83060E+06 3.36780
1.83210E+06 2.87540
1.83360E+06 3.09130
1.83430E+06 2.91470
1.83820E+06 2.19790
1.83900E+06 2.32940
1.84140E+06 2.83260
1.84380E+06 3.06021
1.84740E+06 3.40900
1.84890E+06 3.80980
1.85000E+06 3.42180
1.85040E+06 3.28270
1.85100E+06 3.22780
1.85200E+06 3.07950
1.85350E+06 3.13330
1.85510E+06 3.44050
1.85590E+06 3.40850
1.85660E+06 3.36181
1.85830E+06 2.26610
1.85880E+06 1.98370
1.86010E+06 1.98830
1.86070E+06 2.09690
1.86440E+06 2.90260
1.86600E+06 2.47350
1.86800E+06 2.85800
1.86900E+06 3.00700
1.87050E+06 3.86530
1.87060E+06 3.93370
1.87220E+06 3.99540
1.87370E+06 3.88580
1.87540E+06 4.17660
1.87840E+06 4.19930
1.88000E+06 4.12040
1.88030E+06 3.94660
1.88280E+06 2.32620
1.88520E+06 3.01720
1.88630E+06 3.46720
1.88810E+06 1.90710
1.88960E+06 1.65870
1.89020E+06 1.66960
1.89110E+06 1.70500
1.89320E+06 1.36400
1.89520E+06 1.40870
1.89610E+06 1.45640
1.89690E+06 1.69910
1.89770E+06 1.68960
1.89820E+06 1.71080
1.89920E+06 2.08640
1.90020E+06 2.71330
1.90080E+06 3.05130
1.90230E+06 3.27640
1.90270E+06 3.20490
1.90520E+06 2.48800
1.90650E+06 2.20180
1.90800E+06 2.11540
1.90940E+06 2.23060
1.91030E+06 2.75450
1.91190E+06 3.74560
1.91350E+06 4.22060
1.91510E+06 3.16290
1.91530E+06 3.16570
1.91680E+06 3.25910
1.91790E+06 3.59600
1.91840E+06 3.69481
1.92000E+06 3.29580
1.92040E+06 3.28520
1.92160E+06 3.20401
1.92300E+06 3.33400
1.92330E+06 3.38520
1.92490E+06 4.03360
1.92550E+06 4.15210
1.92650E+06 4.40110
1.92820E+06 4.28490
1.93140E+06 3.57320
1.93320E+06 4.56810
1.93470E+06 5.22400
1.93580E+06 5.01630
1.93640E+06 4.93510
1.93800E+06 4.92790
1.93840E+06 5.06160
1.93970E+06 5.46340
1.94100E+06 5.44430
1.94130E+06 5.42590
1.94350E+06 4.00850
1.94650E+06 2.17250
1.94750E+06 1.81350
1.94870E+06 1.80260
1.94910E+06 1.82870
1.95280E+06 2.86510
1.95400E+06 3.04710
1.95460E+06 3.11290
1.95660E+06 2.74600
1.95780E+06 2.57690
1.95920E+06 2.71540
1.95950E+06 2.72350
1.96380E+06 2.20820
1.96450E+06 2.15990
1.96620E+06 1.96000
1.96850E+06 2.03230
1.96860E+06 2.05120
1.96990E+06 2.69820
1.97240E+06 3.03520
1.97300E+06 3.04700
1.97470E+06 3.98740
1.97790E+06 2.37970
1.97920E+06 2.10651
1.98040E+06 2.30850
1.98080E+06 2.41990
1.98220E+06 3.30000
1.98330E+06 3.37080
1.98570E+06 3.20150
1.98840E+06 2.81120
1.99010E+06 3.39200
1.99110E+06 3.18910
1.99190E+06 3.01310
1.99360E+06 3.66890
1.99650E+06 3.14260
1.99700E+06 3.06910
1.99870E+06 2.59370
1.99920E+06 2.61820
2.00000E+06 2.68040
2.00050E+06 2.72250
2.00200E+06 3.34870
2.00370E+06 3.44290
2.00730E+06 3.23140
2.00910E+06 3.15000
2.01010E+06 2.91470
2.01070E+06 2.72900
2.01090E+06 2.66520
2.01440E+06 3.92710
2.01610E+06 3.65970
2.01790E+06 2.96050
2.01830E+06 2.89230
2.01960E+06 2.71200
2.02100E+06 2.83920
2.02140E+06 2.89230
2.02310E+06 3.83630
2.02380E+06 3.92090
2.02490E+06 3.99870
2.02650E+06 3.79520
2.03020E+06 3.39591
2.03200E+06 3.42960
2.03340E+06 4.06780
2.03480E+06 4.15010
2.03910E+06 4.50001
2.04040E+06 4.47570
2.04260E+06 4.28070
2.04320E+06 4.02300
2.04440E+06 3.45160
2.04600E+06 2.82630
2.04870E+06 1.85370
2.05160E+06 1.74460
2.05720E+06 3.66010
2.05880E+06 4.07060
2.06240E+06 3.50240
2.06780E+06 3.34080
2.06860E+06 3.47981
2.07140E+06 3.97611
2.07150E+06 3.99820
2.07430E+06 3.46420
2.07690E+06 3.02200
2.07720E+06 3.07750
2.08060E+06 3.57570
2.08240E+06 4.04680
2.08290E+06 3.98830
2.08580E+06 3.47180
2.09160E+06 2.89510
2.09380E+06 2.60800
2.09450E+06 2.56370
2.09580E+06 2.52120
2.09720E+06 2.84280
2.09740E+06 2.80110
2.09880E+06 2.54290
2.10070E+06 2.88950
2.10320E+06 3.76890
2.10460E+06 4.10830
2.10650E+06 3.18560
2.10910E+06 3.10980
2.11030E+06 3.23670
2.11210E+06 2.90500
2.11240E+06 2.92687
2.11245E+06 2.93058
2.11400E+06 3.04349
2.11490E+06 3.42349
2.11590E+06 3.81979
2.11780E+06 3.95839
2.11960E+06 3.12359
2.12200E+06 2.91829
2.12260E+06 2.86729
2.12610E+06 2.56889
2.12800E+06 2.53420
2.12970E+06 2.81449
2.13110E+06 3.07149
2.13480E+06 3.35129
2.13570E+06 3.27969
2.13870E+06 3.13229
2.14050E+06 3.47080
2.14250E+06 2.82869
2.14440E+06 2.80079
2.14630E+06 3.29340
2.14820E+06 3.04719
2.15000E+06 3.30659
2.15010E+06 3.32199
2.15210E+06 3.79200
2.15380E+06 3.96099
2.15520E+06 3.90109
2.15590E+06 3.87059
2.16120E+06 2.02429
2.16250E+06 1.73399
2.16380E+06 2.00270
2.16750E+06 3.45019
2.16950E+06 3.68440
2.17150E+06 3.64069
2.17580E+06 2.73110
2.17750E+06 2.57899
2.17890E+06 2.58789
2.18040E+06 2.86940
2.18530E+06 3.46739
2.19040E+06 2.58779
2.19250E+06 2.60490
2.19330E+06 3.01260
2.19720E+06 3.41109
2.20000E+06 3.20370
2.20110E+06 3.12220
2.20310E+06 3.21199
2.20710E+06 4.65870
2.21110E+06 3.05190
2.21310E+06 2.82610
2.21520E+06 3.01779
2.21920E+06 2.76810
2.22530E+06 3.07160
2.22750E+06 3.62560
2.23140E+06 3.49350
2.23330E+06 2.15570
2.23500E+06 2.06060
2.23540E+06 2.03730
2.23960E+06 2.78780
2.24150E+06 2.61880
2.24330E+06 1.93030
2.24570E+06 1.83720
2.24690E+06 2.08460
2.24780E+06 2.27010
2.24970E+06 2.45590
2.25000E+06 2.39814
2.25240E+06 1.93610
2.25500E+06 1.84950
2.25600E+06 2.11280
2.26220E+06 2.98980
2.26430E+06 3.71420
2.26640E+06 3.72480
2.26850E+06 3.42180
2.27060E+06 3.98560
2.27270E+06 4.19210
2.27480E+06 3.10740
2.27900E+06 3.23490
2.28170E+06 2.67570
2.28530E+06 2.66990
2.28950E+06 3.57220
2.29380E+06 3.41790
2.29700E+06 1.98820
2.29830E+06 1.97060
2.30120E+06 3.00510
2.30460E+06 3.30550
2.30720E+06 3.42110
2.31080E+06 3.19570
2.31290E+06 3.35160
2.31500E+06 3.83170
2.31730E+06 3.64630
2.32100E+06 2.25430
2.32160E+06 2.07480
2.32590E+06 4.32060
2.32930E+06 3.73600
2.33680E+06 3.40530
2.33900E+06 3.04800
2.34340E+06 3.46000
2.34760E+06 3.53270
2.35190E+06 2.14990
2.35580E+06 1.97070
2.35870E+06 2.70300
2.36200E+06 2.13280
2.36320E+06 2.27840
2.36570E+06 2.87670
2.36750E+06 2.67890
2.37000E+06 2.50650
2.37040E+06 2.47920
2.37560E+06 2.65261
2.37660E+06 3.06210
2.37720E+06 3.03850
2.37890E+06 2.96980
2.38110E+06 3.03030
2.38680E+06 4.98140
2.38990E+06 4.21900
2.39240E+06 2.85510
2.39500E+06 2.74530
2.39950E+06 4.32350
2.40000E+06 4.24650
2.40140E+06 4.03440
2.40370E+06 2.99041
2.40600E+06 2.76680
2.41060E+06 3.09250
2.41510E+06 4.32940
2.41890E+06 2.34630
2.42200E+06 2.25390
2.42670E+06 3.31390
2.43130E+06 2.67680
2.43590E+06 3.94861
2.43820E+06 4.02920
2.44290E+06 3.18430
2.44760E+06 4.06900
2.45230E+06 3.16530
2.45460E+06 3.22420
2.45700E+06 3.41230
2.45930E+06 4.34680
2.46000E+06 4.44010
2.46170E+06 4.66870
2.47260E+06 2.44380
2.48080E+06 4.31590
2.48550E+06 3.51730
2.48790E+06 3.67640
2.49030E+06 3.50630
2.49270E+06 3.12260
2.49510E+06 3.48260
2.49750E+06 3.57280
2.49830E+06 3.48060
2.50000E+06 3.28370
2.50470E+06 3.91980
2.51200E+06 3.15230
2.51450E+06 3.05830
2.51930E+06 4.23520
2.52180E+06 4.27890
2.52420E+06 3.60280
2.52670E+06 3.23930
2.53160E+06 3.88950
2.53410E+06 3.89980
2.53650E+06 3.41630
2.54400E+06 4.10970
2.54640E+06 5.04830
2.54890E+06 4.56880
2.55140E+06 3.80420
2.55480E+06 3.99460
2.55890E+06 4.48449
2.56640E+06 3.72970
2.56890E+06 3.57560
2.57150E+06 3.87900
2.57400E+06 4.53549
2.57650E+06 3.92490
2.57900E+06 3.94370
2.58160E+06 4.20030
2.58390E+06 4.66510
2.59440E+06 3.26100
2.60000E+06 3.02199
2.60010E+06 3.01840
2.60430E+06 3.07920
2.60740E+06 3.47779
2.61130E+06 3.31830
2.61200E+06 3.29150
2.61500E+06 3.42160
2.61740E+06 3.17010
2.62030E+06 3.47310
2.62270E+06 3.56890
2.62530E+06 3.54700
2.63340E+06 2.39429
2.64080E+06 3.58610
2.64460E+06 3.13109
2.65150E+06 2.74110
2.65420E+06 2.49410
2.65960E+06 3.52950
2.66210E+06 3.34770
2.66440E+06 3.62500
2.66990E+06 3.16590
2.67300E+06 3.16600
2.67580E+06 3.62059
2.67780E+06 3.68590
2.68410E+06 3.51669
2.68850E+06 3.49490
2.69140E+06 3.59900
2.70000E+06 3.18670
2.70140E+06 3.21859
2.70560E+06 3.31809
2.70590E+06 3.34649
2.70780E+06 3.52959
2.71240E+06 3.26119
2.71610E+06 3.27860
2.71890E+06 3.63820
2.72480E+06 3.47790
2.72960E+06 4.19720
2.73790E+06 3.30900
2.74070E+06 3.39860
2.74350E+06 3.81649
2.75000E+06 3.15918
2.75460E+06 2.69400
2.75740E+06 3.37050
2.76020E+06 3.69039
2.76580E+06 3.23809
2.76870E+06 3.90050
2.77430E+06 3.17730
2.77710E+06 3.39140
2.78000E+06 3.09699
2.78270E+06 2.92849
2.78860E+06 3.52200
2.80000E+06 2.83689
2.80290E+06 3.12379
2.80590E+06 3.01890
2.80840E+06 2.83470
2.81410E+06 2.78970
2.82020E+06 3.22539
2.82830E+06 3.04500
2.83480E+06 3.94260
2.84340E+06 3.25380
2.84920E+06 4.27870
2.85220E+06 3.90090
2.85510E+06 3.28170
2.85810E+06 3.36819
2.86130E+06 3.64240
2.86390E+06 3.63830
2.87030E+06 2.81970
2.87310E+06 2.77840
2.87900E+06 3.60460
2.88190E+06 3.28400
2.88450E+06 3.60250
2.89000E+06 3.68560
2.89390E+06 3.64130
2.90000E+06 3.18100
2.90290E+06 3.14000
2.90590E+06 3.28400
2.91200E+06 2.52120
2.91500E+06 2.79829
2.91810E+06 2.41590
2.92470E+06 3.76470
2.92840E+06 3.93000
2.93340E+06 3.71149
2.93950E+06 3.60570
2.94260E+06 3.82490
2.95000E+06 3.35800
2.95810E+06 2.82750
2.96120E+06 3.41280
2.96440E+06 3.44090
2.96550E+06 3.34730
2.97370E+06 2.64790
2.98000E+06 3.69000
2.98330E+06 2.94470
2.98870E+06 2.74120
2.99150E+06 2.75170
2.99310E+06 2.75860
2.99510E+06 2.92290
3.00000E+06 3.32600
3.00500E+06 3.73020
3.00780E+06 3.80120
3.01000E+06 3.72100
3.01160E+06 3.66420
3.01340E+06 3.51890
3.01490E+06 3.39740
3.01810E+06 3.61920
3.02130E+06 3.61510
3.02460E+06 3.21750
3.03750E+06 3.70310
3.04010E+06 3.40850
3.05040E+06 3.10350
3.05370E+06 3.31760
3.05700E+06 3.16510
3.06020E+06 3.53270
3.06350E+06 3.59010
3.06720E+06 3.53430
3.07000E+06 3.33640
3.07010E+06 3.33250
3.07340E+06 3.26880
3.08000E+06 3.72800
3.08330E+06 4.13050
3.08660E+06 3.59440
3.08990E+06 3.55460
3.09320E+06 3.63220
3.09990E+06 3.32790
3.10330E+06 3.57050
3.10660E+06 3.13990
3.11330E+06 3.32299
3.11670E+06 3.73920
3.12000E+06 3.38270
3.12340E+06 3.23150
3.13360E+06 3.70270
3.13700E+06 3.75240
3.14040E+06 3.92160
3.14720E+06 3.83800
3.15060E+06 4.10410
3.15400E+06 4.15480
3.15740E+06 3.96250
3.16090E+06 3.35030
3.16430E+06 3.22779
3.17120E+06 4.10630
3.17500E+06 3.72200
3.17630E+06 3.67650
3.17800E+06 3.61800
3.17930E+06 3.57270
3.19200E+06 3.13270
3.19550E+06 2.88150
3.19900E+06 3.37770
3.20000E+06 3.44330
3.20250E+06 3.60700
3.20600E+06 3.39540
3.20950E+06 3.78979
3.21660E+06 2.96280
3.22010E+06 2.99760
3.22370E+06 2.75300
3.23080E+06 3.58540
3.23430E+06 3.77850
3.23790E+06 2.97709
3.24140E+06 3.03119
3.24500E+06 3.59400
3.24860E+06 3.86680
3.25220E+06 3.66359
3.25940E+06 2.92200
3.26300E+06 3.24700
3.26660E+06 3.88110
3.27030E+06 3.47400
3.27360E+06 3.34240
3.27740E+06 3.33190
3.28110E+06 3.45060
3.29200E+06 4.11849
3.29560E+06 3.35660
3.29930E+06 2.83880
3.30000E+06 2.81550
3.30300E+06 2.71259
3.30660E+06 3.17330
3.31770E+06 3.51529
3.32140E+06 3.52380
3.32880E+06 2.84600
3.33250E+06 2.94900
3.33630E+06 3.19840
3.34000E+06 3.26210
3.34370E+06 3.16060
3.34750E+06 3.39030
3.35120E+06 3.47270
3.35870E+06 3.36330
3.36630E+06 3.85500
3.37760E+06 2.96479
3.39290E+06 3.90270
3.39670E+06 3.99909
3.40000E+06 3.73919
3.40440E+06 3.39179
3.40820E+06 3.77150
3.41210E+06 3.82510
3.41590E+06 3.29690
3.42800E+06 3.08289
3.43080E+06 3.16740
3.43930E+06 3.42390
3.44310E+06 3.36599
3.44700E+06 2.91010
3.44850E+06 3.02149
3.44910E+06 3.06560
3.45880E+06 3.78290
3.46670E+06 3.46420
3.47070E+06 3.46249
3.48210E+06 4.05369
3.50000E+06 3.37740
3.50600E+06 3.15150
3.50710E+06 3.11029
3.51120E+06 2.95790
3.51200E+06 2.92790
3.51460E+06 2.83240
3.52260E+06 3.46950
3.54300E+06 3.16610
3.54700E+06 3.63129
3.55110E+06 3.58260
3.56340E+06 2.74710
3.58140E+06 3.46329
3.60000E+06 3.38830
3.60370E+06 3.37010
3.61750E+06 3.59909
3.62180E+06 3.11329
3.62600E+06 3.12520
3.63020E+06 3.49090
3.63440E+06 3.16890
3.64720E+06 3.63369
3.65150E+06 3.25120
3.65570E+06 3.68910
3.66400E+06 3.90059
3.66430E+06 3.91250
3.66700E+06 3.58590
3.66860E+06 3.39290
3.66900E+06 3.41920
3.67200E+06 3.62369
3.67290E+06 3.68549
3.67720E+06 3.74049
3.68150E+06 3.42100
3.69450E+06 3.84410
3.69890E+06 3.60250
3.70000E+06 3.43880
3.70320E+06 2.96030
3.71200E+06 3.59810
3.73840E+06 3.56730
3.74280E+06 2.93130
3.74720E+06 2.89050
3.75170E+06 3.50000
3.75610E+06 3.56060
3.76060E+06 3.77440
3.76500E+06 3.50740
3.77000E+06 3.44220
3.77400E+06 3.58350
3.77850E+06 3.34649
3.78300E+06 3.38629
3.79200E+06 4.30240
3.80000E+06 4.03470
3.80100E+06 4.00240
3.81010E+06 3.13710
3.81400E+06 3.26120
3.82370E+06 3.57250
3.83000E+06 3.77470
3.83760E+06 4.17720
3.84220E+06 3.54060
3.85140E+06 3.43760
3.86530E+06 3.94790
3.87470E+06 3.52320
3.87930E+06 3.51430
3.88600E+06 3.69249
3.89340E+06 3.76770
3.89700E+06 3.65890
3.90000E+06 3.56900
3.90110E+06 3.53520
3.90280E+06 3.48330
3.91230E+06 3.43720
3.92170E+06 3.82950
3.92500E+06 3.57380
3.92650E+06 3.45520
3.92660E+06 3.45620
3.93130E+06 3.40460
3.93600E+06 3.49420
3.94080E+06 4.02470
3.94560E+06 3.71280
3.96000E+06 3.59410
4.00000E+06 3.26570
4.00870E+06 3.19340
4.01860E+06 4.03450
4.02350E+06 4.04900
4.02840E+06 3.40740
4.03830E+06 3.76470
4.04330E+06 4.29270
4.04830E+06 4.15020
4.05330E+06 3.64260
4.06330E+06 3.54150
4.07330E+06 3.98450
4.07930E+06 3.65750
4.09350E+06 3.54710
4.10000E+06 3.88260
4.10150E+06 3.95830
4.10880E+06 4.13310
4.11800E+06 3.75740
4.12200E+06 3.59390
4.12410E+06 3.50880
4.14000E+06 3.88180
4.14990E+06 3.79910
4.16540E+06 3.94550
4.17200E+06 3.59650
4.17390E+06 3.49620
4.17590E+06 3.39060
4.18630E+06 4.00310
4.18950E+06 3.70820
4.19160E+06 3.51450
4.19430E+06 3.49330
4.19680E+06 3.47380
4.20000E+06 3.64530
4.20210E+06 3.75840
4.21800E+06 2.95339
4.23390E+06 3.74260
4.24460E+06 3.55099
4.25000E+06 3.34360
4.26610E+06 4.20819
4.27150E+06 3.71540
4.27690E+06 3.94920
4.28230E+06 4.02989
4.28770E+06 3.91560
4.29320E+06 3.48200
4.29860E+06 3.44620
4.30000E+06 3.49060
4.30960E+06 3.79790
4.31500E+06 3.82280
4.32050E+06 3.47570
4.32600E+06 3.86869
4.34000E+06 3.96890
4.34820E+06 4.02810
4.35370E+06 3.47240
4.35930E+06 3.76000
4.37000E+06 3.77810
4.37550E+06 3.78729
4.37560E+06 3.78760
4.37770E+06 3.79109
4.37960E+06 3.79450
4.38170E+06 3.79840
4.39290E+06 3.43730
4.40000E+06 3.56800
4.41740E+06 3.43119
4.42690E+06 3.07129
4.43260E+06 3.17180
4.43830E+06 3.45910
4.44410E+06 3.49620
4.44980E+06 3.08560
4.45560E+06 3.56660
4.46130E+06 3.73329
4.46710E+06 3.44230
4.46830E+06 3.50229
4.47430E+06 3.80260
4.47440E+06 3.80790
4.47870E+06 4.02319
4.48040E+06 3.96449
4.49610E+06 3.42230
4.49770E+06 3.71399
4.50000E+06 3.75320
4.51550E+06 4.01600
4.53020E+06 3.63120
4.53340E+06 3.70930
4.53840E+06 3.83110
4.54420E+06 3.97230
4.57250E+06 3.69639
4.57720E+06 3.49519
4.58640E+06 3.76910
4.59120E+06 3.91420
4.59150E+06 3.92209
4.60000E+06 3.77379
4.60580E+06 3.67220
4.61280E+06 3.74560
4.61540E+06 3.77530
4.62060E+06 3.70319
4.62500E+06 3.64230
4.63950E+06 3.75940
4.64430E+06 3.69210
4.65000E+06 3.78730
4.65890E+06 3.74710
4.67350E+06 3.35649
4.69320E+06 3.79870
4.70000E+06 3.83029
4.70280E+06 3.84310
4.71290E+06 3.73890
4.72550E+06 3.75210
4.74780E+06 3.37260
4.75000E+06 3.42980
4.76280E+06 3.76370
4.77290E+06 3.84130
4.79320E+06 3.66640
4.80000E+06 3.78570
4.80340E+06 3.92799
4.83000E+06 3.70840
4.83920E+06 3.73390
4.84440E+06 3.91670
4.87030E+06 3.72700
4.88600E+06 3.69830
4.89120E+06 3.54610
4.90000E+06 3.65010
4.90170E+06 3.67040
4.92280E+06 3.81150
4.94400E+06 3.62190
4.95470E+06 3.62750
4.96000E+06 3.56080
4.98690E+06 3.74950
4.99230E+06 3.54990
5.00000E+06 3.53430
5.00850E+06 3.51640
5.01390E+06 3.63620
5.01940E+06 3.50070
5.05220E+06 4.05010
5.05770E+06 3.86970
5.09090E+06 3.42720
5.10770E+06 3.66980
5.11880E+06 3.68460
5.13570E+06 3.48630
5.14700E+06 3.80590
5.15270E+06 3.80731
5.15830E+06 3.71421
5.17540E+06 3.90441
5.19250E+06 3.62760
5.20000E+06 3.68750
5.20400E+06 3.71930
5.21550E+06 3.53010
5.22130E+06 3.66710
5.24450E+06 3.59820
5.24880E+06 3.62588
5.24882E+06 3.62603
5.25000E+06 3.63361
5.25030E+06 3.63521
5.25620E+06 3.51021
5.28550E+06 3.82641
5.30000E+06 3.73570
5.30320E+06 3.71550
5.30910E+06 3.75070
5.31500E+06 3.95010
5.35680E+06 3.56530
5.38090E+06 3.72420
5.40000E+06 3.55070
5.42350E+06 3.61010
5.44800E+06 3.82820
5.50000E+06 3.70511
5.54800E+06 3.58850
5.58610E+06 3.69270
5.60000E+06 3.80840
5.61830E+06 3.80381
5.63120E+06 3.70081
5.63770E+06 3.86581
5.64410E+06 3.89421
5.65660E+06 3.63810
5.69650E+06 3.57751
5.73530E+06 3.62610
5.74290E+06 3.74020
5.75000E+06 3.70000
5.76290E+06 3.62720
5.78980E+06 3.72250
5.80000E+06 3.83800
5.80340E+06 3.87661
5.81690E+06 3.54360
5.83060E+06 3.65730
5.83740E+06 3.58561
5.85790E+06 3.72240
5.87170E+06 3.52260
5.88550E+06 3.64861
5.90630E+06 3.51710
5.93420E+06 3.75320
5.94130E+06 3.87240
5.95530E+06 3.63950
5.96940E+06 3.75331
6.00000E+06 3.55650
6.03360E+06 3.82360
6.04790E+06 3.63011
6.05700E+06 3.73290
6.08410E+06 3.67150
6.09140E+06 3.57050
6.09870E+06 3.73280
6.11330E+06 3.69510
6.12070E+06 3.53730
6.13540E+06 3.47380
6.15750E+06 3.72080
6.17980E+06 3.62809
6.19470E+06 3.38630
6.20000E+06 3.44240
6.22470E+06 3.70360
6.27780E+06 3.45170
6.30070E+06 3.69850
6.30840E+06 3.59000
6.31610E+06 3.60490
6.32380E+06 3.75190
6.34000E+06 3.65740
6.37810E+06 3.80020
6.39370E+06 3.67689
6.40000E+06 3.73640
6.40160E+06 3.75149
6.42520E+06 3.73599
6.44100E+06 3.54100
6.45690E+06 3.74840
6.48080E+06 3.46329
6.50000E+06 3.70869
6.50490E+06 3.77100
6.52910E+06 3.59449
6.54000E+06 3.61289
6.56150E+06 3.78789
6.58610E+06 3.56220
6.60000E+06 3.63090
6.62720E+06 3.76610
6.66880E+06 3.57850
6.70000E+06 3.55890
6.71070E+06 3.55210
6.74000E+06 3.62970
6.80000E+06 3.60019
6.83030E+06 3.58620
6.88260E+06 3.67460
6.92650E+06 3.59380
6.95310E+06 3.63960
6.97100E+06 3.48790
7.00000E+06 3.55630
7.01580E+06 3.47820
7.04290E+06 3.56120
7.06110E+06 3.49390
7.07930E+06 3.64090
7.13000E+06 3.53390
7.17160E+06 3.60870
7.28000E+06 3.50660
7.37130E+06 3.62970
7.40000E+06 3.55240
7.42010E+06 3.49890
7.50000E+06 3.53360
7.59980E+06 3.57560
7.62020E+06 3.45330
7.74720E+06 3.47360
7.75700E+06 3.47519
7.77850E+06 3.47868
7.77851E+06 3.47868
7.87000E+06 3.49350
8.00000E+06 3.43680
8.10200E+06 3.39040
8.10250E+06 3.39010
8.21440E+06 3.33930
8.32000E+06 3.47190
8.50000E+06 3.35210
8.66660E+06 3.23990
9.00000E+06 3.27351
9.50000E+06 3.20001
1.00000E+07 3.12680
1.02190E+07 3.09473
1.03640E+07 3.07351
1.03740E+07 3.07210
1.04200E+07 3.06570
1.05000E+07 3.05420
1.06000E+07 3.04050
1.07200E+07 3.02430
1.07230E+07 3.02379
1.08000E+07 3.01379
1.10000E+07 2.98639
1.13000E+07 2.94099
1.13990E+07 2.92320
1.14020E+07 2.92280
1.14060E+07 2.92250
1.15000E+07 2.90779
1.16000E+07 2.89229
1.17000E+07 2.87510
1.18000E+07 2.85790
1.19000E+07 2.84020
1.20000E+07 2.82240
1.21430E+07 2.78741
1.21440E+07 2.78740
1.21480E+07 2.78660
1.21610E+07 2.78443
1.21611E+07 2.78441
1.22000E+07 2.77791
1.23000E+07 2.76120
1.24000E+07 2.75290
1.25000E+07 2.74451
1.26000E+07 2.73060
1.28000E+07 2.71710
1.30000E+07 2.70360
1.32000E+07 2.68020
1.34000E+07 2.65890
1.35000E+07 2.65080
1.36000E+07 2.63840
1.36200E+07 2.63650
1.38000E+07 2.61681
1.40000E+07 2.59830
1.42000E+07 2.57520
1.45000E+07 2.54060
1.46000E+07 2.53160
1.50000E+07 2.49540
1.53000E+07 2.46848
1.55000E+07 2.44921
1.56000E+07 2.44130
1.60000E+07 2.40690
1.65000E+07 2.36620
1.70000E+07 2.32480
1.75000E+07 2.30780
1.80000E+07 2.29300
1.85000E+07 2.27700
1.90000E+07 2.26420
1.95000E+07 2.25110
2.00000E+07 2.23800