Fe-57(n,tot) ENDF/B-VII.1
Energy(eV) XS(b)
1.00000E-05 124.622
1.25000E-05 111.739
1.50000E-05 102.230
2.00000E-05 88.8811
2.75000E-05 76.1802
3.50000E-05 67.8215
4.25000E-05 61.7872
5.00000E-05 57.1676
6.25000E-05 51.4063
7.50000E-05 47.1535
0.000100000 41.1840
0.000125000 37.1101
0.000150000 34.1030
0.000200000 29.8818
0.000275000 25.8655
0.000350000 23.2222
0.000425000 21.3140
0.000500000 19.8531
0.000625000 18.0312
0.000750000 16.6864
0.00100000 14.7986
0.00125000 13.5104
0.00150000 12.5594
0.00200000 11.2246
0.00275000 9.95449
0.00350000 9.11860
0.00425000 8.51517
0.00500000 8.05320
0.00625000 7.47707
0.00750000 7.05178
0.0100000 6.45481
0.0125000 6.04742
0.0150000 5.74669
0.0200000 5.32456
0.0253000 5.02196
0.0314750 4.77099
0.0376500 4.58462
0.0500000 4.32159
0.0625000 4.13938
0.0750000 4.00486
0.100000 3.81604
0.125000 3.68717
0.150000 3.59203
0.200000 3.45847
0.275000 3.33135
0.350000 3.24767
0.414000 3.19506
0.414000 3.19506
0.414001 3.19506
0.414002 3.19505
0.414003 3.19505
0.414005 3.19505
0.414011 3.19505
0.414021 3.19504
0.414042 3.19503
0.414084 3.19499
0.414168 3.19493
0.414336 3.19481
0.414672 3.19457
0.415344 3.19408
0.416688 3.19312
0.419375 3.19119
0.424750 3.18740
0.435500 3.18004
0.457000 3.16609
0.500000 3.14095
0.625000 3.08320
0.750000 3.04054
1.00000 2.98061
1.50000 2.90936
2.00000 2.86675
2.75000 2.82601
3.50000 2.79904
5.00000 2.76434
7.50000 2.73108
10.0000 2.71069
15.0000 2.68543
20.0000 2.66933
27.5000 2.65265
35.0000 2.64043
50.0000 2.62230
75.0000 2.60029
100.000 2.58268
150.000 2.55289
200.000 2.52638
275.000 2.48918
350.000 2.45335
500.000 2.38278
750.000 2.26339
999.999 2.13803
1000.00 2.13803
1000.01 2.13803
1000.01 2.13803
1000.02 2.13802
1000.04 2.13801
1000.08 2.13799
1000.16 2.13795
1000.31 2.13787
1000.62 2.13772
1001.23 2.13740
1002.46 2.13676
1004.92 2.13549
1009.84 2.13294
1019.68 2.12783
1039.36 2.11757
1078.71 2.09689
1157.42 2.05482
1314.85 1.96757
1400.00 1.91851
1400.00 1.91850
1400.01 1.91850
1400.02 1.91850
1400.03 1.91849
1400.06 1.91847
1400.11 1.91844
1400.23 1.91837
1400.45 1.91824
1400.90 1.91798
1401.80 1.91745
1403.59 1.91641
1407.18 1.91431
1414.36 1.91010
1428.71 1.90166
1457.43 1.88469
1514.85 1.85050
1543.56 1.83362
1572.27 1.81799
1586.63 1.81210
1593.81 1.81070
1600.98 1.81190
1608.16 1.81965
1611.75 1.82963
1615.34 1.84972
1617.13 1.86740
1618.93 1.89497
1620.72 1.94078
1622.52 2.02423
1623.42 2.09415
1624.31 2.19979
1625.21 2.37026
1626.11 2.67126
1626.56 2.91679
1627.00 3.27846
1627.45 3.84538
1627.90 4.80118
1628.35 6.60737
1628.57 8.17094
1628.80 10.6156
1629.02 14.7457
1629.25 22.3427
1629.36 28.6976
1629.47 38.1269
1629.58 52.4952
1629.69 74.4247
1629.85 117.909
1630.00 146.858
1630.15 117.624
1630.31 74.2113
1630.49 42.8296
1630.67 26.9560
1630.85 18.4787
1631.03 13.5858
1631.21 10.5171
1631.39 8.49995
1631.75 6.08923
1632.11 4.76964
1632.47 3.97226
1633.20 3.10016
1633.92 2.65954
1634.64 2.40660
1635.36 2.24811
1636.08 2.14225
1637.53 2.01389
1638.97 1.94181
1640.42 1.89715
1641.86 1.86745
1644.75 1.83125
1647.64 1.81048
1653.41 1.78770
1659.19 1.77503
1664.97 1.76639
1676.52 1.75397
1699.63 1.73529
1722.73 1.71874
1815.15 1.65483
2000.00 1.52104
2000.00 1.52104
2000.01 1.52103
2000.02 1.52103
2000.03 1.52102
2000.06 1.52100
2000.11 1.52095
2000.23 1.52087
2000.45 1.52070
2000.91 1.52036
2001.81 1.51968
2003.61 1.51831
2007.23 1.51558
2014.45 1.51010
2028.90 1.49909
2057.80 1.47684
2115.59 1.43138
2231.18 1.33648
2462.35 1.12952
2693.53 0.900502
2924.70 0.666178
3000.00 0.598879
3000.00 0.598877
3000.01 0.598871
3000.01 0.598866
3000.03 0.598856
3000.05 0.598834
3000.11 0.598792
3000.21 0.598706
3000.42 0.598536
3000.83 0.598195
3001.66 0.597516
3003.32 0.596161
3006.64 0.593471
3013.27 0.588174
3026.55 0.577928
3053.09 0.559024
3106.18 0.529391
3212.35 0.524175
3318.53 0.664093
3371.61 0.840455
3424.70 1.14146
3477.79 1.64087
3530.88 2.46564
3583.96 3.84462
3637.05 6.21289
3690.14 10.4516
3743.23 18.4694
3769.77 25.0939
3796.31 34.6275
3822.86 48.4587
3849.40 68.3434
3899.70 124.950
3924.85 154.197
3950.00 169.921
4000.30 147.124
4050.60 103.063
4106.78 69.3567
4162.95 49.9719
4219.13 38.4631
4275.30 31.2025
4387.65 22.9984
4500.00 18.8046
4500.00 18.8046
4500.01 18.8044
4500.02 18.8042
4500.03 18.8037
4500.06 18.8029
4500.12 18.8013
4500.25 18.7980
4500.49 18.7914
4500.98 18.7782
4501.95 18.7520
4503.90 18.6999
4507.80 18.5973
4515.61 18.3984
4531.21 18.0241
4562.42 17.3616
4624.84 16.3249
4687.26 15.5965
4718.47 15.3306
4726.27 15.2761
4734.07 15.2328
4737.97 15.2227
4741.87 15.2424
4743.82 15.2908
4744.80 15.3436
4745.77 15.4416
4746.75 15.6460
4747.24 15.8396
4747.73 16.1687
4748.21 16.7950
4748.46 17.3415
4748.70 18.1961
4748.94 19.6457
4749.19 22.3453
4749.31 24.6235
4749.43 28.0326
4749.55 33.2823
4749.68 41.3088
4749.84 57.0842
4750.00 67.5198
4750.16 56.9910
4750.33 41.3197
4750.45 33.2379
4750.57 28.0043
4750.69 24.6041
4750.81 22.3304
4751.06 19.6335
4751.30 18.1830
4751.55 17.3234
4751.79 16.7751
4752.28 16.1445
4752.76 15.8087
4753.25 15.6092
4754.23 15.3929
4755.20 15.2827
4756.18 15.2180
4758.13 15.1458
4762.03 15.0787
4765.93 15.0416
4773.73 14.9905
4781.54 14.9502
4812.74 14.8317
4875.16 14.7368
5000.00 15.0629
5000.00 15.0629
5000.01 15.0630
5000.02 15.0630
5000.03 15.0631
5000.06 15.0633
5000.12 15.0636
5000.25 15.0643
5000.49 15.0656
5000.98 15.0682
5001.96 15.0736
5003.93 15.0844
5007.85 15.1065
5015.70 15.1529
5031.39 15.2544
5062.78 15.4926
5125.55 16.1197
5251.10 18.0899
5376.65 21.3769
5502.20 26.7805
5627.75 35.9227
5753.30 52.3124
5878.85 84.1019
5941.63 111.027
6004.40 149.936
6210.00 326.564
6261.43 320.064
6312.85 281.456
6415.70 183.769
6500.00 126.215
6500.00 126.214
6500.01 126.211
6500.01 126.208
6500.02 126.203
6500.04 126.192
6500.08 126.170
6500.17 126.125
6500.33 126.037
6500.66 125.861
6501.31 125.508
6502.62 124.808
6505.23 123.422
6510.46 120.710
6520.92 115.517
6541.84 105.996
6583.67 89.9706
6667.34 66.9611
6751.01 51.8550
6834.68 41.5373
7002.02 28.8653
7085.70 24.8354
7106.61 23.9917
7127.53 23.2203
7137.99 22.8803
7143.22 22.7359
7148.45 22.6294
7153.68 22.6125
7156.29 22.6844
7158.91 22.8842
7160.22 23.0785
7161.52 23.3910
7162.83 23.9145
7164.14 24.8536
7165.44 26.7376
7166.10 28.4586
7166.75 31.2790
7167.41 36.3535
7167.73 40.5334
7168.06 46.7080
7168.39 56.3555
7168.71 72.3062
7169.04 100.372
7169.37 151.171
7169.68 229.064
7170.00 280.838
7170.32 228.950
7170.64 151.348
7170.98 98.7164
7171.32 70.5504
7171.66 54.8198
7172.00 45.4145
7172.34 39.4100
7172.68 35.3919
7173.37 30.5246
7174.05 27.8082
7174.73 26.1451
7176.10 24.2888
7177.46 23.3219
7178.83 22.7456
7180.19 22.3673
7181.55 22.1000
7184.28 21.7417
7187.01 21.5035
7192.47 21.1776
7197.93 20.9360
7203.39 20.7301
7214.31 20.3660
7236.15 19.7183
7257.98 19.1248
7345.33 17.0816
7520.03 14.0740
7694.72 11.9856
7782.07 11.1732
7803.91 10.9919
7825.74 10.8253
7836.66 10.7553
7842.12 10.7295
7847.58 10.7180
7853.04 10.7419
7855.77 10.7860
7858.50 10.8819
7861.23 11.1030
7862.59 11.3248
7863.96 11.7192
7865.32 12.5114
7866.00 13.2411
7866.69 14.4506
7867.37 16.6677
7867.71 18.5275
7868.05 21.3400
7868.39 25.8454
7868.73 33.5921
7869.07 48.0193
7869.42 76.3153
7869.71 115.936
7870.00 142.265
7870.29 115.871
7870.59 76.4096
7870.86 52.1302
7871.14 38.0815
7871.41 29.7718
7871.69 24.6120
7872.24 18.8839
7872.79 16.0065
7873.34 14.3686
7873.89 13.3550
7875.00 12.2165
7876.10 11.6254
7877.20 11.2783
7878.31 11.0560
7879.41 10.9040
7881.62 10.7125
7883.82 10.5977
7888.23 10.4643
7892.65 10.3841
7897.06 10.3256
7905.88 10.2356
7923.53 10.0927
7941.17 9.96575
7976.47 9.73037
8011.76 9.51013
8152.94 8.73706
8435.29 7.56247
9000.00 6.07125
9000.00 6.07125
9000.01 6.07123
9000.02 6.07122
9000.03 6.07119
9000.06 6.07113
9000.12 6.07100
9000.25 6.07076
9000.49 6.07027
9000.98 6.06930
9001.96 6.06735
9003.91 6.06346
9007.81 6.05569
9015.63 6.04024
9031.25 6.00965
9062.50 5.94965
9125.00 5.83424
9250.00 5.62007
9500.00 5.24779
9999.99 4.66628
10000.0 4.66626
10000.1 4.66621
10000.1 4.66617
10000.2 4.66609
10000.4 4.66592
10000.7 4.66559
10001.4 4.66492
10002.7 4.66360
10005.4 4.66094
10010.7 4.65565
10021.3 4.64512
10042.7 4.62425
10085.3 4.58323
10170.6 4.50396
10341.2 4.35561
10682.3 4.09322
11364.6 3.66868
12046.9 3.33161
12388.1 3.18408
12558.6 3.11472
12643.9 3.08515
12665.3 3.08199
12686.6 3.08911
12697.2 3.10676
12707.9 3.16407
12713.2 3.24564
12715.9 3.32651
12718.6 3.47053
12721.2 3.76645
12722.6 4.04498
12723.9 4.52120
12725.2 5.44430
12725.9 6.26342
12726.6 7.54984
12727.2 9.80731
12727.9 14.0871
12728.2 17.9494
12728.6 23.7722
12728.9 33.1100
12729.2 48.2250
12729.6 75.4788
12730.0 92.9849
12730.4 74.8763
12730.8 47.8057
12731.1 33.9722
12731.4 25.2745
12731.7 19.3948
12732.0 15.5789
12732.6 10.9376
12733.2 8.46187
12733.7 6.95926
12734.3 6.01337
12735.5 4.90892
12736.7 4.32135
12737.8 3.97263
12740.2 3.59705
12742.5 3.40960
12744.9 3.30255
12749.5 3.19064
12758.9 3.10431
12768.3 3.07040
12787.0 3.04059
12805.7 3.02502
12843.2 3.00402
12880.6 2.98682
13030.4 2.92407
13180.2 2.86148
13330.0 2.79552
13479.8 2.72226
13554.7 2.68093
13629.5 2.63515
13704.4 2.58543
13741.9 2.56174
13779.3 2.54560
13816.8 2.55751
13835.5 2.59364
13854.2 2.68086
13873.0 2.88823
13882.3 3.09033
13891.7 3.42788
13901.0 4.02953
13910.4 5.22401
13915.1 6.32473
13919.8 8.26037
13922.1 9.97641
13923.3 11.2678
13924.4 13.1387
13925.6 16.1780
13926.8 22.0714
13927.4 27.6668
13928.0 37.2020
13928.5 56.0020
13928.8 71.8818
13929.1 94.9463
13929.6 144.488
13930.0 177.627
13930.5 144.582
13930.9 96.3585
13931.3 69.4470
13931.6 53.0730
13932.0 43.0837
13932.4 36.8260
13933.1 30.1954
13933.9 27.4379
13935.3 26.6981
13936.8 28.9091
13939.8 38.8267
13942.7 56.9928
13950.0 132.207
13951.8 133.111
13953.7 119.679
13957.3 80.2176
13959.6 60.7572
13961.9 46.8500
13966.4 30.0615
13970.9 21.1972
13975.5 16.0799
13980.0 12.8778
13984.6 10.7529
13993.6 8.18319
14002.7 6.73661
14011.8 5.83634
14030.0 4.80472
14048.2 4.24739
14066.3 3.90550
14084.5 3.67690
14102.7 3.51429
14139.0 3.29891
14175.3 3.16265
14211.7 3.06805
14248.0 2.99788
14248.0 2.99785
14248.1 2.99777
14248.2 2.99770
14248.4 2.99755
14248.8 2.99726
14249.5 2.99668
14251.0 2.99552
14253.9 2.99329
14259.8 2.98911
14271.5 2.98177
14295.0 2.97059
14342.0 2.95902
14436.0 2.96305
14624.0 3.02321
14812.0 3.11339
15000.0 3.21740
15500.0 3.47031
16000.0 3.74770
17000.0 3.76240
17500.0 3.78874
17750.0 3.80777
17875.0 3.82046
17937.5 3.82901
18000.0 3.84163
18049.3 3.85694
18073.9 3.87160
18098.6 3.89788
18110.9 3.91984
18123.2 3.95318
18135.5 4.00748
18147.9 4.10492
18154.0 4.18563
18160.2 4.30673
18166.3 4.50024
18172.5 4.83721
18178.7 5.50207
18181.7 6.10683
18184.8 7.10094
18187.9 8.89664
18189.4 10.3856
18191.0 12.6092
18192.5 16.1103
18194.1 21.9835
18195.6 32.5344
18197.1 52.2441
18198.6 81.4270
18200.0 100.985
18201.4 81.6822
18202.9 52.5755
18204.4 32.6610
18206.0 22.0540
18207.5 16.1697
18209.1 12.6859
18210.7 10.4577
18212.2 8.96619
18215.3 7.17071
18218.4 6.17112
18221.6 5.56336
18227.8 4.89108
18234.0 4.54823
18240.2 4.35015
18246.5 4.22547
18252.7 4.14205
18265.2 4.04052
18277.6 3.98362
18290.1 3.94857
18302.5 3.92556
18327.4 3.89833
18352.3 3.88372
18402.2 3.87014
18452.0 3.86522
18501.8 3.86390
18601.4 3.86599
18800.7 3.87770
19000.0 3.89419
19500.0 3.96804
20000.0 4.06346
20000.0 4.06346
20000.1 4.06348
20000.1 4.06349
20000.3 4.06351
20000.5 4.06355
20001.0 4.06365
20002.0 4.06383
20003.9 4.06419
20007.8 4.06492
20015.6 4.06639
20031.3 4.06934
20062.5 4.07532
20125.0 4.08757
20250.0 4.11335
20500.0 4.17026
20750.0 4.23504
21000.0 4.30927
21069.7 4.33626
21139.4 4.36687
21174.2 4.38670
21209.0 4.41948
21226.5 4.45388
21235.2 4.48519
21243.9 4.53984
21252.6 4.65244
21256.9 4.76174
21261.3 4.95532
21263.5 5.11452
21265.7 5.35143
21267.8 5.72591
21270.0 6.36419
21272.2 7.59720
21273.3 8.68965
21274.4 10.4150
21275.4 13.4222
21276.5 19.2248
21277.1 24.3608
21277.6 32.1792
21278.2 44.7264
21278.7 65.0713
21279.4 101.694
21280.0 126.281
21280.7 102.122
21281.3 65.6275
21282.0 40.6199
21282.7 27.4408
21283.4 20.0766
21284.1 15.6707
21284.8 12.8308
21285.5 10.9550
21286.9 8.68177
21288.3 7.40868
21289.7 6.63669
21292.5 5.78165
21295.3 5.34312
21298.2 5.08974
21301.0 4.93034
21303.8 4.82398
21309.4 4.69462
21315.0 4.62267
21326.2 4.55044
21337.5 4.51799
21348.7 4.50186
21371.1 4.48986
21416.1 4.49293
21461.0 4.50660
21550.8 4.54272
21640.7 4.58346
22000.0 4.77038
23000.0 5.58694
23000.0 5.58696
23000.1 5.58704
23000.2 5.58711
23000.3 5.58726
23000.6 5.58756
23001.2 5.58816
23002.4 5.58937
23004.8 5.59177
23009.5 5.59658
23019.0 5.60624
23038.0 5.62569
23075.9 5.66513
23151.8 5.74613
23303.5 5.91726
23607.0 6.30028
24228.3 7.41239
24539.0 8.11348
24694.3 8.51077
24772.0 8.72285
24810.8 8.83295
24830.2 8.89145
24840.0 8.93162
24844.8 8.99275
24847.2 9.16416
24848.4 9.64676
24849.1 10.7210
24849.4 12.3049
24849.7 16.4593
24849.8 21.1421
24850.0 24.0622
24850.2 20.9360
24850.4 16.5485
24850.6 12.5499
24850.9 10.9257
24851.5 9.78069
24852.6 9.23596
24854.8 9.04505
24859.3 8.99752
24868.3 9.00648
24886.2 9.05463
24922.0 9.16109
25031.7 9.53736
25141.4 9.93760
25360.8 10.8178
25580.2 11.8211
25689.9 12.3764
25744.7 12.6693
25772.1 12.8208
25785.9 12.9026
25792.7 12.9631
25796.1 13.0611
25797.9 13.3084
25798.7 13.8741
25799.1 14.7878
25799.6 17.4554
25800.0 21.9862
25800.4 17.5055
25800.8 14.9768
25801.2 14.0270
25802.0 13.4061
25803.6 13.1334
25806.7 13.0534
25812.9 13.0594
25825.4 13.1222
25850.3 13.2638
25900.2 13.5583
26000.0 14.1788
26262.3 16.1497
26524.5 18.5014
27049.0 24.7613
27124.3 25.9084
27162.0 26.5062
27180.8 26.8128
27190.3 26.9745
27195.0 27.0818
27197.3 27.2251
27198.5 27.5558
27199.1 28.2691
27199.4 29.3281
27199.7 32.1593
27199.8 35.3089
27200.0 37.2660
27200.2 35.1673
27200.3 32.2321
27200.6 29.5166
27200.9 28.4358
27201.4 27.6962
27202.5 27.3523
27204.6 27.2579
27208.9 27.2891
27217.4 27.4204
27234.5 27.7051
27268.8 28.2913
27337.2 29.5099
27474.0 32.1346
27755.4 38.3837
28036.8 45.8365
28318.1 54.3393
28458.8 58.8172
28529.2 61.0614
28564.3 62.1800
28581.9 62.7556
28590.7 63.1200
28592.9 63.2778
28595.1 63.5843
28596.2 63.9207
28597.3 64.6918
28597.9 65.5488
28598.4 67.3330
28598.7 69.0785
28599.0 71.9492
28599.2 77.1795
28599.5 87.4107
28599.8 102.199
28600.0 111.904
28600.2 102.487
28600.5 87.7902
28600.8 77.2869
28601.1 71.8788
28601.4 69.0090
28601.6 67.3545
28602.2 65.6552
28602.8 64.8606
28604.0 64.1823
28605.1 63.9243
28607.4 63.7586
28609.7 63.7392
28619.0 63.9303
28642.8 64.6045
28666.6 65.2967
28714.3 66.6631
28809.5 69.2704
29000.0 73.7288
29100.0 75.3172
29385.5 77.2073
29671.0 74.9587
30000.0 67.9171
30553.0 52.4594
30726.0 47.8855
31000.0 41.2289
31224.0 36.5241
31447.0 32.4484
31671.0 28.9126
31785.3 27.3137
31842.4 26.5548
31871.0 26.1882
31885.2 26.0224
31892.4 25.9987
31896.0 26.1908
31897.7 26.8832
31898.6 28.5030
31899.1 31.0972
31899.3 33.7430
31899.5 38.4181
31899.8 45.9532
31900.0 51.1770
31900.2 46.0846
31900.5 38.5731
31900.7 34.3672
31900.9 31.8012
31901.3 29.0525
31902.0 27.1408
31902.8 26.5096
31903.6 26.2261
31906.7 25.8678
31912.9 25.6916
31925.4 25.5080
31950.2 25.1925
32000.0 24.5886
32150.5 22.9104
32301.0 21.3745
32762.0 17.5083
33000.0 15.9004
33000.0 15.9003
33000.1 15.8998
33000.1 15.8995
33000.3 15.8987
33000.5 15.8972
33001.0 15.8942
33002.0 15.8882
33003.9 15.8762
33007.8 15.8522
33015.6 15.8044
33031.3 15.7094
33062.5 15.5217
33125.0 15.1555
33250.0 14.4583
33500.0 13.1900
34000.0 11.0663
34593.0 9.16715
34797.0 8.62458
35000.0 8.13074
35099.7 7.90501
35149.6 7.79711
35174.5 7.75494
35187.0 7.78266
35193.2 7.98245
35194.8 8.18357
35196.3 8.69760
35197.1 9.31073
35197.9 10.6742
35198.3 12.0653
35198.7 14.6108
35199.1 19.8110
35199.3 24.3088
35199.4 30.9812
35199.7 45.1364
35200.0 54.7170
35200.3 45.4857
35200.6 31.4232
35200.8 22.8522
35201.1 17.9822
35201.6 13.0750
35202.1 10.9465
35202.6 9.87601
35203.6 8.85980
35204.6 8.41582
35206.6 8.04449
35208.7 7.89450
35216.7 7.71942
35232.9 7.63864
35265.3 7.55656
35330.0 7.41810
35514.0 7.06024
35698.0 6.72526
36000.0 6.23143
36425.0 5.63481
36716.2 5.30188
36789.0 5.22485
36861.7 5.15449
36898.1 5.12712
36934.5 5.12103
36952.7 5.14645
36961.8 5.18075
36970.9 5.24954
36980.0 5.40083
36984.6 5.54840
36989.1 5.80509
36993.7 6.30411
36996.0 6.74951
36998.2 7.45980
37000.5 8.69792
37002.8 11.0826
37003.9 13.1834
37005.0 16.4155
37006.2 21.6812
37007.3 30.2029
37008.7 45.4695
37010.0 55.6868
37011.4 45.6861
37012.7 30.4733
37013.7 22.8468
37014.7 17.8726
37015.6 14.5561
37016.6 12.3339
37018.6 9.64646
37020.5 8.18695
37022.4 7.30811
37024.4 6.74353
37028.3 6.08933
37032.2 5.73740
37036.1 5.52693
37043.9 5.29577
37051.6 5.17592
37059.4 5.10401
37075.0 5.02148
37100.9 4.95305
37126.8 4.91116
37178.5 4.85060
37282.0 4.75369
37641.0 4.53302
38000.0 4.34272
38549.0 4.32172
38774.5 4.45109
39000.0 4.60810
39088.6 4.74696
39177.1 4.90655
39221.4 5.00906
39243.5 5.07659
39265.7 5.16998
39287.8 5.32551
39298.9 5.45817
39310.0 5.67550
39321.0 6.08477
39326.6 6.44749
39332.1 7.03147
39337.6 8.06505
39343.2 10.1311
39345.9 12.0184
39348.7 15.0603
39351.5 20.2717
39354.2 29.3491
39357.1 44.0748
39360.0 54.0494
39362.9 44.4548
39365.8 29.8934
39367.9 22.5959
39370.0 17.7944
39372.0 14.6146
39374.1 12.4551
39378.3 9.84739
39382.5 8.42688
39386.6 7.57533
39390.8 7.03103
39399.1 6.40400
39407.4 6.07442
39415.8 5.88401
39432.4 5.69174
39449.1 5.61118
39465.7 5.57924
39499.0 5.57896
39561.6 5.73015
39624.3 5.92278
39749.5 6.37088
39874.8 6.89548
40000.0 7.51636
40112.5 8.31288
40225.0 9.25764
40337.5 10.4101
40450.0 11.8573
40562.5 13.7270
40675.0 16.2059
40787.5 19.5583
40900.0 24.1332
41000.0 29.5326
41200.0 43.7828
41400.0 57.9660
41625.0 58.9791
41737.5 54.4030
41793.8 51.6871
41821.9 50.3470
41850.0 49.1686
41860.4 48.8530
41870.8 48.8085
41876.0 49.0311
41881.3 49.6318
41886.5 51.0454
41891.7 54.2401
41895.8 58.6728
41900.0 61.6146
41904.2 58.3832
41908.3 53.5572
41911.9 50.7192
41915.5 48.9241
41919.1 47.7444
41922.7 46.9242
41929.9 45.8341
41937.0 45.0986
41951.4 44.0362
41965.7 43.1855
41994.4 41.7014
42023.1 40.3437
42137.8 35.5473
42367.2 28.1355
42596.6 22.7607
42826.0 18.6616
43327.0 12.8612
43749.0 9.75979
44059.0 8.06964
44557.0 5.97438
45056.0 4.31937
45554.0 2.87260
45676.0 2.53352
46000.0 1.67924
46053.0 1.55483
46177.5 1.31383
46239.8 1.22567
46270.9 1.19431
46302.0 1.17405
46333.1 1.18620
46364.3 1.21515
46395.4 1.26486
46426.5 1.34025
46457.6 1.44756
46488.8 1.59456
46551.0 2.05030
46613.5 2.92710
46676.0 4.31968
46738.5 6.73781
46801.0 10.4886
46825.0 12.5618
46875.0 18.0048
46925.0 25.1027
47000.0 37.7936
47050.0 44.7220
47112.5 47.8445
47175.0 45.5338
47275.0 36.7677
47299.0 34.6617
47355.0 30.2496
47411.0 26.5281
47549.0 20.0806
47673.5 16.4680
47798.0 13.9357
48000.0 11.3148
48141.0 10.0848
48330.0 8.88682
48546.0 7.91467
48912.0 6.83063
49000.0 6.64276
49000.0 6.64272
49000.1 6.64256
49000.2 6.64240
49000.3 6.64209
49000.6 6.64149
49001.2 6.64027
49002.4 6.63782
49004.8 6.63296
49009.7 6.62325
49019.3 6.60399
49038.6 6.56613
49077.3 6.49287
49154.5 6.35563
49309.0 6.11439
49543.0 5.83342
49959.0 5.51472
50000.0 5.49420
50140.5 5.43642
50281.0 5.39560
50640.0 5.37018
50799.0 5.39221
50927.0 5.42336
51012.4 5.45474
51055.0 5.48802
51065.7 5.51066
51076.4 5.56562
51081.7 5.63347
51087.1 5.79804
51089.7 5.98686
51092.4 6.38794
51093.7 6.77910
51095.1 7.45049
51096.4 8.70649
51097.7 11.1823
51098.9 14.6608
51100.0 17.0329
51101.2 14.7702
51102.3 11.3360
51103.2 9.51938
51104.0 8.36210
51105.8 7.10961
51107.5 6.51428
51109.3 6.19362
51112.7 5.88169
51116.2 5.74162
51123.2 5.62367
51130.2 5.57762
51144.1 5.54451
51158.0 5.53551
51192.5 5.53844
51227.0 5.55115
51296.0 5.58465
51434.0 5.66587
51717.0 5.87840
52000.0 6.14383
52286.0 6.47355
52429.0 6.67692
52489.5 6.78718
52550.0 6.94857
52582.0 7.09627
52598.0 7.21200
52614.0 7.38601
52632.8 7.74848
52642.2 8.06366
52651.6 8.56494
52661.1 9.43508
52670.5 11.1337
52675.2 12.6444
52679.9 15.0189
52684.6 18.9371
52689.3 25.4767
52694.6 36.8284
52700.0 44.5888
52705.0 38.1204
52710.7 26.1287
52714.4 20.7197
52718.1 17.0730
52721.8 14.6186
52725.5 12.9341
52732.9 10.8719
52740.3 9.73018
52747.7 9.04099
52755.1 8.59807
52769.9 8.08736
52784.7 7.82072
52799.4 7.66906
52829.0 7.52302
52871.8 7.46235
52914.5 7.46776
53000.0 7.54699
53128.5 7.72418
53257.0 7.92597
53628.5 8.56806
54000.0 9.24537
55000.0 11.0394
55654.0 12.0281
55800.0 12.2234
55996.9 12.4733
56046.1 12.5375
56095.3 12.6124
56119.9 12.6654
56144.5 12.7606
56156.8 12.8600
56163.0 12.9449
56169.1 13.0797
56175.3 13.3160
56181.4 13.7890
56184.5 14.2231
56187.6 14.9277
56190.6 16.1469
56193.7 18.3005
56196.9 21.7566
56200.0 24.1271
56203.2 21.9279
56206.3 18.5295
56209.3 16.4307
56212.2 15.2068
56215.2 14.4786
56218.1 14.0233
56224.1 13.5188
56230.0 13.2656
56235.9 13.1231
56241.8 13.0366
56253.7 12.9441
56277.3 12.8816
56301.0 12.8716
56344.7 12.8934
56388.4 12.9303
56475.8 13.0155
56650.5 13.1936
57000.0 13.5539
57621.0 14.3607
58253.0 15.7559
58476.3 16.5204
58588.0 16.9679
58643.8 17.2102
58671.7 17.3362
58685.7 17.4017
58692.7 17.4415
58696.2 17.4898
58697.9 17.6086
58698.8 17.9093
58699.2 18.4810
58699.7 20.5917
58700.0 23.8662
58700.4 20.7429
58700.9 18.3010
58701.5 17.8265
58702.7 17.6061
58705.0 17.5334
58709.7 17.5282
58719.1 17.5641
58737.8 17.6518
58775.3 17.8370
58850.2 18.2297
59000.0 19.1051
59149.0 20.1304
59574.5 23.8962
60000.0 29.0270
60000.0 29.0273
60000.1 29.0282
60000.1 29.0290
60000.3 29.0308
60000.5 29.0342
60001.0 29.0411
60002.0 29.0548
60004.1 29.0822
60008.1 29.1373
60016.2 29.2477
60032.4 29.4696
60064.8 29.9179
60129.5 30.8314
60259.0 32.7117
60518.0 36.5459
60801.0 40.3038
61000.0 42.4496
61500.0 44.5843
62000.0 42.6441
62851.0 35.0562
63000.0 33.6786
63443.0 29.9456
63719.9 27.9010
63789.1 27.4208
63858.3 26.9553
63892.9 26.7317
63927.5 26.5262
63944.8 26.4464
63962.1 26.4288
63970.8 26.4998
63975.1 26.5923
63979.4 26.7693
63983.8 27.1300
63985.9 27.4518
63988.1 27.9595
63990.2 28.8160
63992.4 30.3663
63994.6 33.4704
63995.6 36.1804
63996.7 40.1687
63998.4 48.8877
64000.0 54.8893
64001.7 49.3208
64003.3 40.7533
64004.9 35.3979
64006.4 32.2952
64008.0 30.4325
64009.5 29.2696
64012.6 27.9601
64015.7 27.2860
64018.8 26.8893
64021.9 26.6338
64028.2 26.3272
64034.4 26.1470
64040.6 26.0245
64053.0 25.8562
64081.4 25.6043
64109.8 25.4048
64166.5 25.0464
64280.0 24.3816
64528.0 23.0594
64776.0 21.8580
65224.0 19.9723
65612.0 18.5761
66000.0 17.3574
66344.0 16.3992
66565.0 15.8361
66675.5 15.5666
66730.8 15.4343
66758.4 15.3693
66786.0 15.3271
66792.7 15.4046
66796.1 15.7354
66797.8 16.7025
66798.6 18.7058
66799.0 21.4467
66799.4 27.7129
66799.7 35.3323
66800.0 40.7224
66800.3 35.7921
66800.6 28.2851
66801.0 22.2460
66801.4 19.3878
66802.1 17.1443
66803.7 15.9582
66806.8 15.4885
66813.0 15.3205
66825.5 15.2431
66850.4 15.1702
66900.3 15.0519
67000.0 14.8288
67290.0 14.2185
68000.0 12.8989
69000.0 11.3511
70000.0 10.0498
71000.0 8.90910
71697.0 8.17943
72223.0 7.65704
72668.0 7.23384
72783.6 7.12929
72841.4 7.07662
72870.3 7.05419
72884.7 7.06738
72891.9 7.17534
72895.6 7.55832
72897.4 8.54175
72898.3 10.2473
72898.7 12.1893
72899.2 15.9108
72899.6 21.4110
72900.0 25.2972
72900.4 21.8053
72900.8 16.4137
72901.3 12.6547
72901.8 10.6151
72902.7 8.81310
72904.5 7.72864
72908.2 7.26353
72915.5 7.09534
72930.1 7.02950
72959.4 6.98569
73017.9 6.92689
73135.0 6.81945
73405.0 6.59311
74000.0 6.17236
74449.0 5.98626
75000.0 6.11436
75324.0 6.62806
75648.0 7.57179
76000.0 9.78884
76200.0 11.9055
76512.0 16.9460
77000.0 28.5469
77200.0 32.6020
77600.0 34.8093
78000.0 31.6796
78200.0 29.4063
78576.0 25.2755
79000.0 21.6117
79264.0 19.8207
80000.0 16.2435
80257.5 15.3498
80386.3 14.9416
80515.0 14.5555
80606.9 14.3052
80652.9 14.1855
80675.9 14.1432
80687.4 14.1978
80693.1 14.4881
80696.0 15.3162
80697.4 16.9211
80698.2 18.9449
80698.9 23.1651
80699.4 28.8259
80700.0 32.8298
80700.6 29.2756
80701.1 23.7318
80701.7 20.0201
80702.3 17.9662
80703.5 16.0443
80705.8 14.8549
80710.5 14.3215
80719.8 14.1120
80738.5 14.0037
80775.9 13.8900
80850.6 13.7006
80925.3 13.5220
81000.0 13.3496
81163.5 13.0031
81327.0 12.6776
81663.5 12.0865
82000.0 11.5582
82703.0 10.6518
83000.0 10.3266
84000.0 9.40863
85000.0 8.68227
85454.0 8.39628
86000.0 8.07976
87000.0 7.55911
87226.5 7.44945
87453.0 7.34181
87680.0 7.23979
87777.5 7.20596
87826.3 7.20077
87875.0 7.22607
87904.3 7.28972
87919.0 7.36010
87933.6 7.49117
87948.3 7.76212
87955.6 8.01364
87962.9 8.42903
87970.3 9.17809
87977.6 10.6963
87981.2 12.0932
87984.9 14.3528
87988.6 18.2100
87992.2 24.9474
87996.1 36.1337
88000.0 43.9918
88003.9 37.0808
88007.8 26.1496
88010.5 20.8416
88013.1 17.2484
88015.8 14.8033
88018.5 13.1166
88023.8 11.0329
88029.1 9.86662
88034.4 9.15193
88039.8 8.68515
88050.4 8.13058
88061.1 7.82498
88071.7 7.63730
88093.0 7.42477
88110.6 7.32587
88128.3 7.25998
88163.5 7.17654
88198.8 7.12387
88234.0 7.08556
88304.5 7.02885
88375.0 6.98431
88531.3 6.90245
88687.5 6.82916
89000.0 6.69109
89216.0 6.60032
89324.0 6.55689
89432.0 6.51890
89496.4 6.50621
89560.9 6.52413
89593.1 6.57483
89609.2 6.63128
89625.3 6.73558
89641.4 6.94741
89649.5 7.14008
89657.5 7.45111
89665.6 7.99319
89673.6 9.03463
89677.7 9.93848
89681.7 11.3182
89685.7 13.5057
89689.7 16.9802
89694.9 23.6380
89700.0 28.3199
89705.2 24.2301
89710.3 17.7472
89715.2 13.6425
89720.2 11.2565
89725.1 9.83846
89730.0 8.95009
89739.9 7.95803
89749.7 7.45071
89759.6 7.15652
89769.4 6.97023
89789.2 6.75409
89808.9 6.63541
89828.6 6.56116
89868.0 6.47226
89907.5 6.41879
89947.0 6.38066
90026.0 6.32441
90184.0 6.23992
90342.0 6.16642
90500.0 6.09585
91000.0 5.87857
91289.0 5.74926
91690.0 5.55898
92092.0 5.34646
92494.0 5.09793
92695.0 4.98328
92896.0 4.80242
93000.0 4.72518
93097.0 4.66488
93197.5 4.69554
93298.0 4.69542
93348.5 4.83579
93399.0 5.00740
93449.0 5.45914
93499.0 6.14734
93549.1 7.68316
93574.1 8.94284
93599.1 10.7929
93600.0 10.8740
93603.1 11.1503
93606.3 11.4403
93612.5 12.0669
93625.0 13.5194
93650.0 17.2894
93700.0 26.5641
93709.0 27.8586
93731.8 29.3021
93754.5 28.8768
93800.0 25.1648
93801.0 25.0647
93804.1 24.7519
93807.3 24.4412
93813.5 23.8243
93826.0 22.6249
93851.0 20.4158
93901.0 16.8099
93950.5 14.4234
94000.0 12.5829
94051.0 11.3327
94102.0 10.3251
94176.0 9.37039
94250.0 8.62553
94303.0 8.24127
94403.5 7.70807
94504.0 7.28945
94705.0 6.76480
94906.0 6.39162
95000.0 6.26244
95308.0 5.93691
95710.0 5.63977
96111.0 5.41641
97000.0 5.04117
98000.0 4.70864
99594.0 4.26046
100000 4.16012
100685 3.99303
101028 3.90890
101370 3.82293
101582 3.77524
101636 3.76708
101689 3.77279
101715 3.79742
101742 3.88661
101755 4.01749
101762 4.14681
101768 4.36793
101775 4.79966
101778 5.17144
101782 5.75019
101785 6.70952
101788 8.43084
101792 11.8228
101793 14.8477
101795 18.9855
101797 28.6143
101800 35.4363
101803 29.6581
101805 20.3148
101807 16.1406
101808 13.1750
101812 9.58555
101815 7.67359
101818 6.59017
101821 5.88519
101824 5.42911
101831 4.86651
101837 4.54744
101843 4.35367
101856 4.13388
101869 4.01604
101881 3.94520
101906 3.86448
101957 3.79119
102008 3.75452
102109 3.71103
102210 3.68021
102408 3.63553
102605 3.59576
103000 3.52186
104000 3.39425
105000 3.39192
106000 3.66338
106675 4.20210
107350 5.23280
107850 6.63442
108350 8.93356
108450 9.51506
108720 11.3734
109000 13.6332
109410 17.0516
109500 17.5953
109600 18.2411
109673 19.1674
109745 20.1637
109781 20.6905
109818 21.1851
109836 21.3562
109854 21.3516
109872 20.8842
109890 19.1683
109904 16.0897
109918 10.6261
109924 7.55332
109931 5.20039
109935 4.49512
109938 4.16531
109942 4.16505
109945 4.44492
109952 5.60984
109959 7.16716
109973 10.2682
109986 12.7837
110000 14.6699
110025 16.8918
110050 18.3341
110075 19.3597
110100 20.1433
110160 21.4963
110220 22.4625
110340 23.1729
110460 23.4865
110700 23.4161
110740 23.3386
110750 23.3076
110773 23.2333
110796 23.1548
110841 22.9851
110933 22.6009
111115 21.6930
111480 19.5758
112000 16.5401
112490 14.0989
112850 12.6117
113000 12.0643
113350 10.9244
113490 10.5190
114000 9.24485
114230 8.75750
114520 8.20636
114690 7.91169
115000 7.42200
115610 6.60370
116000 6.16070
117000 5.22824
117500 4.84313
118000 4.50038
118515 4.19003
118773 4.04226
118901 3.97595
118966 3.95168
119030 3.95020
119069 3.98794
119089 4.03498
119108 4.12456
119127 4.30973
119137 4.47671
119147 4.74340
119157 5.20362
119166 6.05002
119171 6.76346
119176 7.79108
119181 9.36862
119186 11.6903
119193 16.8062
119200 20.4350
119207 17.4114
119214 12.5530
119221 9.66127
119227 7.90401
119233 6.78763
119239 6.07312
119251 5.23582
119264 4.79051
119276 4.52540
119288 4.35377
119313 4.14982
119337 4.03341
119362 3.95841
119411 3.86420
119460 3.80370
119509 3.75818
119607 3.68724
119804 3.57497
120000 3.47610
120645 3.24160
121290 3.03717
121395 3.01965
121447 3.00959
121473 3.00405
121486 3.01075
121493 3.06485
121496 3.26619
121497 3.73514
121499 6.62503
121500 10.7623
121501 7.12417
121502 4.73160
121503 3.89526
121505 3.37959
121509 3.15091
121517 3.06180
121532 3.02748
121563 3.01138
121626 2.99943
121751 2.98587
122001 2.97397
122250 2.98392
122500 3.02443
122637 3.09203
122775 3.17604
122912 3.28041
123050 3.41003
123187 3.57151
123324 3.77292
123462 4.02447
123530 4.17220
123565 4.25162
123582 4.29765
123591 4.35118
123595 4.49303
123597 4.85002
123598 5.53866
123599 7.92053
123600 11.9713
123601 8.37718
123603 5.44556
123604 4.83768
123607 4.55290
123613 4.45222
123626 4.44295
123651 4.49623
123700 4.63687
123800 4.96837
123899 5.36437
123949 5.58841
123974 5.71165
123986 5.80498
123993 5.97387
123996 6.39093
123997 7.22477
123999 10.4241
124000 15.6222
124001 11.0498
124002 8.69665
124003 7.54098
124005 6.65676
124008 6.20438
124016 6.05111
124030 6.05983
124085 6.35277
124140 6.70670
124250 7.53803
124425 9.25105
124512 10.3243
124556 10.9201
124577 11.2358
124588 11.4199
124594 11.6143
124596 12.0113
124598 12.8731
124599 14.1553
124599 16.9637
124600 23.0367
124601 17.6300
124602 13.6644
124603 12.5802
124606 12.0454
124610 11.8771
124620 11.9364
124638 12.2013
124675 12.8061
124750 14.1250
124810 15.2660
125000 18.9423
125190 21.4160
125380 21.7820
125630 17.8174
125750 15.9568
126000 12.3312
126160 11.2029
126390 10.1511
126545 9.55914
126622 9.30913
126660 9.19357
126680 9.14023
126689 9.13359
126694 9.21092
126697 9.47209
126698 9.99913
126699 12.5009
126700 16.3184
126701 12.9084
126702 10.4081
126703 9.75208
126706 9.34719
126710 9.16773
126728 9.03039
126746 8.96380
126783 8.85066
126855 8.65183
127000 8.33804
127250 7.94495
127400 7.89654
127500 7.94881
127750 8.26052
128000 9.02830
128500 11.8074
129500 18.4072
130000 20.2053
130099 20.3605
130149 20.4170
130174 20.4437
130186 20.4847
130193 20.6211
130196 21.0062
130197 21.7937
130199 24.8305
130200 29.7776
130201 25.4206
130202 22.7076
130204 21.6661
130206 21.0026
130211 20.6819
130220 20.5647
130239 20.5329
130276 20.5371
130351 20.5541
130501 20.5313
130800 20.2698
131100 19.8018
131249 19.5176
131324 19.3665
131362 19.2890
131380 19.2516
131390 19.2436
131394 19.2808
131397 19.4014
131399 20.4641
131400 21.8710
131401 20.6181
131404 19.3934
131407 19.2713
131414 19.2110
131426 19.1677
131451 19.1088
131501 19.0005
131600 18.7844
131699 18.5653
131749 18.4533
131774 18.4020
131786 18.4184
131793 18.5979
131796 19.1679
131797 20.3944
131798 22.0570
131799 25.2727
131800 33.0696
131801 26.1525
131803 21.3751
131804 19.8290
131807 18.9369
131812 18.5518
131823 18.3887
131846 18.2913
131890 18.1777
131978 17.9826
132156 17.6172
132510 16.9765
132850 16.5125
133475 16.3531
133787 16.6631
133943 16.8899
134021 17.0120
134060 17.0728
134080 17.1029
134090 17.1239
134095 17.1676
134097 17.2994
134098 17.6130
134099 19.8057
134100 22.7815
134101 20.1168
134101 18.2653
134102 17.6866
134104 17.3635
134107 17.2338
134113 17.1931
134126 17.1946
134151 17.2274
134201 17.3030
134300 17.4518
134500 17.7018
134913 17.8968
135325 17.6342
136150 16.3430
137000 14.7787
138215 12.7431
138823 11.6900
139430 10.4672
139840 9.48676
140250 8.70316
140625 9.67860
140813 10.9687
141000 12.0966
141375 12.8845
141750 12.6542
142125 12.2214
142500 11.7942
143250 11.0621
144188 10.3651
145125 9.79418
147000 8.86451
147900 8.50275
148349 8.33212
148574 8.24850
148687 8.20622
148743 8.18365
148771 8.17101
148785 8.16818
148792 8.19335
148796 8.30487
148797 8.62041
148799 10.8390
148800 13.9339
148801 11.2628
148802 9.24175
148803 8.67282
148806 8.37352
148810 8.24278
148820 8.19171
148838 8.16733
148876 8.14686
148951 8.11713
149101 8.06272
149400 7.95758
150000 7.75388
150350 7.63874
150524 7.58124
150612 7.55142
150656 7.53480
150677 7.52584
150688 7.52971
150694 7.57767
150696 7.74732
150698 8.16069
150699 10.1953
150700 13.2631
150701 10.5944
150702 8.60838
150703 8.03659
150706 7.73501
150710 7.60310
150720 7.55201
150738 7.52791
150776 7.50879
150850 7.48195
151000 7.43329
151536 7.27289
152073 7.11667
153145 6.81268
155290 6.22419
156795 5.82340
157547 5.61941
157923 5.51575
158112 5.46337
158206 5.43699
158253 5.42366
158276 5.41683
158288 5.41330
158294 5.41201
158297 5.41433
158300 5.64684
158300 5.92227
158300 5.68603
158303 5.42321
158306 5.41423
158311 5.40952
158322 5.40524
158344 5.39858
158388 5.38602
158475 5.36118
158650 5.31130
159000 5.21027
159450 5.07959
159675 5.01248
159787 4.97791
159843 4.95950
159871 4.94898
159885 4.94387
159892 4.95087
159896 4.99797
159898 5.15597
159899 6.64250
159900 8.61165
159901 6.91442
159903 5.25213
159905 5.06883
159909 4.99093
159917 4.95955
159933 4.94371
159964 4.92952
160028 4.90803
160155 4.86781
160410 4.78745
161000 4.59766
161390 4.46714
161590 4.39860
162000 4.25414
162700 3.99497
163000 3.87912
163300 3.76079
163700 3.60127
164000 3.48145
164300 3.36469
164550 3.27303
164675 3.23532
164737 3.21572
164768 3.20564
164784 3.20043
164792 3.19794
164796 3.19826
164800 3.38333
164800 3.60368
164800 3.41623
164804 3.20560
164807 3.19791
164813 3.19343
164825 3.18846
164850 3.17998
164925 3.15987
165000 3.13948
165300 3.09029
165800 3.17776
166150 3.51354
166300 3.80114
166525 4.52993
166750 5.83069
166925 7.58475
167100 10.3205
167199 12.2047
167249 13.2015
167274 13.6992
167286 13.9696
167293 14.2261
167296 14.7152
167297 15.6854
167299 19.5198
167300 25.8060
167301 20.5188
167302 16.9107
167304 15.7086
167306 14.9471
167311 14.6789
167321 14.7250
167341 15.0369
167380 15.6936
167475 16.7618
167570 17.0908
167800 14.7350
167850 13.8131
168000 10.8693
168150 8.05143
168300 5.34035
168520 3.78978
168585 3.72124
168649 3.99474
168660 4.08833
168693 4.41218
168725 4.90117
168758 5.57262
168774 5.98199
168790 6.49467
168794 6.83718
168797 7.47692
168798 8.48170
168799 11.8317
168800 17.8785
168801 12.7914
168802 9.71963
168803 8.54147
168805 7.68977
168809 7.31998
168816 7.35620
168831 7.76815
168860 8.79390
168930 11.4312
169000 13.8578
169150 16.5080
169300 16.6358
169351 16.3907
169486 15.5408
169621 14.6417
169891 13.0653
170160 11.8195
170430 10.8188
170865 9.64704
171300 8.72751
171785 7.97358
172270 7.33383
173490 6.12517
174245 5.49276
174623 5.16212
175000 4.80361
175237 4.56811
175475 4.32174
175712 4.11428
175830 4.08835
175949 4.21471
176125 5.02544
176300 6.66498
176476 7.55083
176651 7.26746
176826 6.71953
177000 6.23912
177181 5.84774
177362 5.53650
177725 5.06259
178087 4.69876
178450 4.39182
179174 3.85753
179537 3.60813
179718 3.48400
179809 3.41960
179854 3.38355
179876 3.36299
179888 3.36522
179893 3.44361
179896 3.72851
179898 4.36359
179899 7.51871
179900 12.4576
179901 8.30495
179903 4.54076
179905 3.86982
179909 3.55903
179917 3.43346
179933 3.37739
179965 3.33797
180028 3.28775
180156 3.19945
180410 3.02861
181250 2.47721
181600 2.25575
182000 2.01993
182570 1.75804
183000 1.68386
183275 1.74769
183550 1.91924
183750 2.16739
184000 2.62468
184350 3.70237
184700 5.27478
185500 10.1785
186000 12.3869
186670 13.0245
186735 12.9788
186767 12.9536
186783 12.9471
186791 12.9698
186795 13.0626
186797 13.3124
186798 13.7858
186799 15.9026
186800 18.8552
186801 15.8729
186803 13.4050
186804 13.0909
186808 12.9673
186815 12.9212
186829 12.8957
186857 12.8629
186913 12.7980
187025 12.6541
187250 12.3250
187900 11.3669
188700 10.9344
189500 11.5616
191100 10.9959
191300 10.7739
191400 10.6619
191449 10.6050
191474 10.5751
191487 10.5595
191493 10.5588
191496 10.5932
191498 10.7166
191499 11.8014
191500 13.3339
191501 12.0848
191503 10.7832
191505 10.6449
191509 10.5820
191517 10.5501
191533 10.5232
191565 10.4840
191630 10.4116
191889 10.1441
192147 9.89010
192664 9.42437
193182 9.01282
193440 8.82534
193570 8.73612
193634 8.69410
193667 8.67992
193683 8.69750
193691 8.79011
193695 9.06851
193697 9.68213
193698 10.6020
193699 13.4587
193700 18.2475
193701 13.4366
193702 10.4819
193704 9.53648
193706 8.99025
193711 8.75022
193720 8.66589
193739 8.63091
193776 8.60015
193851 8.54998
194001 8.45497
194300 8.27452
195225 7.79832
196150 7.39580
198000 6.73885
200000 6.18579
200000 6.97175
201000 5.54958
201212 5.24789
201303 4.26669
201348 4.29292
201393 4.34567
201438 4.46043
201461 4.57375
201483 4.75865
201506 5.12451
201517 5.42752
201528 5.89290
201540 6.74578
201546 7.41337
201551 8.17256
201557 9.45322
201562 10.9850
201568 13.6865
201573 16.9705
201586 28.8230
201590 30.2380
201595 28.1224
201607 17.0563
201612 13.7781
201616 11.8528
201621 10.0901
201625 9.05109
201630 8.07533
201634 7.48065
201642 6.62262
201651 5.99155
201659 5.60842
201676 5.10016
201693 4.81106
201710 4.63104
201744 4.42686
201778 4.31839
201812 4.25263
201880 4.17724
201949 4.13358
202017 4.10423
202153 4.06268
202426 4.00303
202698 3.95343
203243 3.86346
203788 3.77948
204334 3.69910
204879 3.62166
205424 3.54638
205697 3.50944
205833 3.49193
205901 3.48635
205935 3.49610
205952 3.54801
205961 3.76728
205965 4.40737
205967 5.93066
205968 8.47085
205969 16.5977
205970 32.1110
205971 16.6357
205972 8.49596
205973 5.94796
205975 4.41721
205979 3.77114
205987 3.55558
206003 3.49110
206035 3.46982
206098 3.45688
206224 3.43875
206476 3.40459
206980 3.33622
207484 3.26405
207736 3.22653
207799 3.22182
207862 3.23493
207894 3.26936
207925 3.37671
207941 3.52398
207957 3.87681
207965 4.25294
207973 4.95888
207977 5.55073
207981 6.42221
207985 7.72514
207988 9.09946
207997 14.8114
208000 15.7740
208003 15.3327
208012 10.2324
208015 8.83632
208018 7.75551
208023 6.49142
208028 5.67328
208033 5.12502
208044 4.42252
208054 4.08069
208075 3.72165
208096 3.55405
208138 3.40161
208180 3.33227
208264 3.26585
208348 3.23094
208516 3.18809
208683 3.15730
209019 3.10573
209354 3.05888
210025 2.96869
210360 2.92615
210528 2.91573
210570 2.92329
210612 2.95528
210633 3.00379
210654 3.13909
210665 3.32705
210675 3.74961
210680 4.21954
210685 5.17608
210688 6.29625
210690 7.51946
210693 10.7827
210695 14.6629
210699 25.9250
210700 26.8841
210701 25.9476
210705 14.7721
210707 10.9018
210708 9.54877
210710 7.63061
210713 5.94679
210715 5.26361
210720 4.28793
210725 3.80394
210735 3.36254
210745 3.17389
210765 3.01826
210784 2.95792
210824 2.90477
210863 2.88187
211021 2.84126
211336 2.79159
211966 2.69852
212597 2.60135
213227 2.49753
213858 2.38427
214488 2.25884
215119 2.11638
215434 2.03643
215592 1.99213
215671 1.96608
215710 1.94856
215730 1.93782
215740 1.95843
215745 2.13281
215747 2.59650
215748 3.42615
215749 6.16785
215750 11.6348
215751 7.08522
215752 4.14355
215753 3.12986
215754 2.69535
215756 2.34059
215760 2.12826
215768 2.02563
215784 1.97808
215817 1.95006
215883 1.92293
216014 1.88035
216277 1.79585
216802 1.60814
217327 1.38414
217852 1.11136
218115 0.952203
218378 0.776530
218641 0.638228
219822 0.638361
219888 0.638369
219953 0.818123
220033 1.23766
220113 1.81024
220193 2.56644
220272 3.51554
220431 6.01189
220590 8.86379
220750 11.1449
220909 12.1764
221068 12.1214
221227 11.4812
221537 9.85696
221615 9.47319
221692 9.11501
221769 8.78955
221789 8.72841
221808 8.72774
221818 8.81211
221827 9.08002
221832 9.47142
221837 10.4070
221840 11.6684
221842 13.2011
221844 15.8387
221846 20.4181
221849 30.4786
221850 32.1287
221851 31.4639
221854 22.4861
221856 17.7148
221858 14.7952
221860 13.0127
221862 11.8770
221866 10.5862
221869 10.0458
221877 9.30713
221884 8.99960
221899 8.67293
221914 8.50265
221944 8.29735
221973 8.15662
222032 7.92621
222091 7.72776
222210 7.37674
222328 7.07310
222565 6.56086
222802 6.14718
223039 5.80656
223276 5.52117
223395 5.39432
223513 5.27714
223631 5.16535
223690 5.10748
223720 5.07662
223735 5.08739
223742 5.23050
223746 5.95875
223748 8.45419
223749 13.4024
223750 20.8575
223751 14.7349
223752 9.54871
223753 7.51239
223754 6.60488
223756 5.85570
223760 5.41107
223768 5.20188
223784 5.10666
223817 5.04702
223882 4.98332
224013 4.88170
224274 4.70709
224536 4.55414
224797 4.41821
225059 4.29420
225320 4.17990
225451 4.12672
225582 4.08534
225648 4.08476
225681 4.10227
225713 4.14825
225746 4.26915
225762 4.38982
225778 4.59957
225795 5.02780
225803 5.37487
225811 5.89613
225819 6.71438
225827 8.06655
225831 9.07552
225835 10.4216
225839 12.2273
225843 14.6326
225856 25.7490
225860 27.5092
225865 26.2726
225877 16.8829
225881 14.4022
225884 12.9065
225888 11.3176
225891 10.3704
225898 8.74528
225904 7.79672
225911 7.01368
225917 6.52505
225930 5.81458
225943 5.37780
225956 5.08903
225982 4.73946
226008 4.54026
226034 4.41326
226086 4.26100
226138 4.17159
226190 4.11099
226294 4.02957
226399 3.97230
226503 3.92724
226711 3.85429
226920 3.79308
227128 3.73902
227545 3.64351
227962 3.55962
228379 3.48406
229212 3.35131
230046 3.23615
230463 3.18364
230879 3.13414
231296 3.08733
231713 3.04442
231922 3.02622
232130 3.01605
232234 3.02128
232338 3.05454
232390 3.10726
232416 3.15983
232442 3.25247
232468 3.43520
232481 3.59995
232494 3.86722
232507 4.33955
232514 4.75777
232520 5.28040
232527 6.21513
232533 7.50002
232537 8.77164
232540 10.0507
232543 11.7045
232546 13.8252
232557 24.1306
232560 25.1494
232564 23.4348
232574 13.8919
232579 10.6216
232584 8.47383
232589 7.05838
232593 6.26453
232602 5.12336
232611 4.47376
232620 4.07318
232629 3.81015
232647 3.49812
232665 3.32735
232683 3.22368
232719 3.10878
232791 3.01304
232863 2.97211
233008 2.93222
233152 2.90906
233441 2.87534
233729 2.84780
234018 2.82472
234306 2.81207
234451 2.81862
234523 2.83147
234595 2.85960
234667 2.92431
234703 2.98886
234739 3.10295
234775 3.32960
234793 3.53596
234811 3.87473
234829 4.48507
234838 4.98980
234847 5.74188
234856 6.92320
234861 7.88714
234865 8.90027
234870 10.6002
234874 12.4478
234879 15.6286
234883 19.0984
234896 34.4732
234900 36.3418
234905 33.5520
234917 19.0932
234921 15.6066
234924 13.5556
234928 11.4205
234931 10.1703
234938 8.07021
234944 6.87540
234951 5.91081
234957 5.32143
234970 4.48735
234983 3.99324
234996 3.67799
235022 3.31468
235049 3.11587
235075 3.00284
235127 2.87925
235180 2.81464
235232 2.77680
235337 2.73283
235547 2.68827
235756 2.66008
236175 2.61499
236594 2.57381
237432 2.49246
238270 2.40783
239109 2.31610
239528 2.26627
239947 2.21278
240366 2.15465
240785 2.09085
241204 2.02306
241414 2.00385
241467 2.01522
241519 2.06428
241545 2.13761
241571 2.33598
241584 2.58393
241597 3.16851
241604 3.87512
241610 5.07862
241614 6.58039
241617 8.46192
241620 11.5455
241623 16.6923
241627 27.3626
241629 31.6668
241630 32.3178
241632 29.9329
241637 16.7648
241639 13.0486
241641 10.3984
241644 7.78398
241647 6.16415
241650 5.11326
241656 3.89837
241662 3.25814
241674 2.64438
241686 2.37069
241711 2.13231
241735 2.03928
241784 1.95837
241832 1.92145
241930 1.87793
242027 1.84612
242417 1.72644
242612 1.65946
242807 1.58435
243002 1.49882
243197 1.40006
243392 1.28435
243587 1.14675
243782 0.980786
243977 0.778582
244075 0.661017
244172 0.641084
244367 0.641106
244733 0.641147
244757 0.760249
244788 1.11861
244818 1.58813
244849 2.22800
244879 3.01986
244910 4.02710
245000 7.70187
245061 9.88958
245122 10.9675
245183 10.9600
245243 10.3554
245308 9.48447
245373 8.63034
245438 7.87913
245503 7.24410
245568 6.71363
245633 6.27041
245698 5.89795
245762 5.58698
245892 5.08409
246021 4.70734
246151 4.41192
246280 4.17784
246410 3.98529
246540 3.82524
246799 3.57501
247058 3.38688
247317 3.23953
247577 3.11989
247836 3.02096
248354 2.86436
248873 2.74366
249391 2.64617
249910 2.56399
250428 2.49291
250947 2.42981
251465 2.37319
251984 2.32223
252502 2.27935
252761 2.26518
252891 2.26315
253020 2.26909
253150 2.29455
253215 2.32484
253279 2.38173
253344 2.50403
253377 2.62327
253409 2.82135
253426 2.98774
253442 3.21226
253458 3.54511
253474 4.06644
253490 4.94330
253498 5.61996
253506 6.56306
253514 7.91907
253522 9.93312
253530 13.0079
253538 17.7187
253555 32.0706
253560 33.6697
253566 31.4664
253582 17.7762
253588 14.0551
253593 11.7360
253598 9.96563
253603 8.60650
253608 7.55220
253613 6.72414
253623 5.53455
253634 4.68145
253644 4.15336
253664 3.49032
253685 3.09277
253705 2.85761
253745 2.58930
253786 2.44466
253826 2.36090
253907 2.26747
253988 2.21811
254069 2.18732
254231 2.14908
254555 2.10377
254879 2.07021
255528 2.00946
255852 1.97468
256014 1.94857
256095 1.93013
256136 1.95267
256156 2.14187
256161 2.33155
256166 2.77824
256171 4.11448
256174 6.45174
256176 9.90092
256179 19.3729
256180 21.2276
256181 20.4966
256184 11.9370
256186 8.20870
256188 6.13559
256192 4.19273
256196 3.36864
256199 3.02984
256206 2.61249
256213 2.41283
256228 2.22089
256242 2.14179
256271 2.06737
256300 2.03323
256416 1.98230
256648 1.94616
257112 1.90176
258040 1.82515
258968 1.74856
259432 1.70829
259664 1.69439
259722 1.70014
259780 1.73066
259809 1.77875
259838 1.90827
259853 2.07016
259867 2.39300
259875 2.75375
259882 3.29994
259889 4.27692
259896 6.10146
259907 11.0316
259910 11.7494
259914 11.2648
259924 7.02831
259928 5.74767
259932 4.82153
259939 3.78130
259946 3.17278
259953 2.79413
259968 2.35182
259982 2.14400
260011 1.93930
260039 1.84945
260096 1.76658
260153 1.72857
260268 1.69035
260382 1.66871
260611 1.63879
260840 1.61462
261755 1.52838
262213 1.48638
262670 1.44896
262899 1.43964
263014 1.44345
263128 1.46152
263243 1.51481
263300 1.57107
263357 1.67027
263414 1.85717
263443 2.01729
263471 2.24709
263500 2.61554
263528 3.19079
263543 3.64323
263557 4.19991
263571 4.92982
263585 5.88034
263634 10.6443
263650 11.5137
263667 11.1656
263715 6.98945
263738 5.45365
263761 4.40645
263784 3.69577
263807 3.20258
263830 2.85020
263853 2.59099
263899 2.24360
263945 2.02740
263991 1.88291
264037 1.78074
264082 1.70655
264174 1.60180
264266 1.53219
264358 1.47932
264404 1.45163
264427 1.42794
264438 1.40129
264444 1.37063
264447 1.38793
264448 1.49941
264449 2.21985
264450 6.76898
264451 3.32550
264452 2.21360
264453 1.88993
264454 1.74961
264456 1.62725
264461 1.53289
264471 1.48486
264491 1.45688
264531 1.43404
264611 1.40664
264771 1.36719
265091 1.30933
265411 1.26428
265731 1.22760
266051 1.20259
266211 1.19946
266371 1.21117
266451 1.22804
266531 1.25885
266611 1.31468
266691 1.42008
266731 1.50807
266771 1.63858
266811 1.84138
266851 2.17703
266871 2.43212
266891 2.78364
266911 3.28446
266931 4.02729
266951 5.18402
266961 6.01213
266971 7.09042
266981 8.51530
266991 10.4213
267001 12.9842
267010 16.0095
267040 29.4137
267050 31.2217
267060 29.4633
267090 16.1770
267100 12.8694
267109 10.5970
267119 8.68383
267128 7.37467
267138 6.25493
267147 5.46986
267166 4.28299
267185 3.50365
267204 2.96790
267223 2.58512
267242 2.30255
267280 1.92150
267318 1.68272
267356 1.52255
267393 1.41172
267469 1.26238
267545 1.16896
267621 1.10538
267659 1.10076
267678 1.19791
267687 1.50928
267692 2.24778
267694 3.01462
267696 4.52854
267700 9.85775
267702 8.15982
267704 5.36726
267706 3.69159
267708 2.79055
267712 1.96684
267720 1.44916
267736 1.20528
267767 1.10065
267829 1.04102
267954 0.986381
268203 0.918127
268453 0.865181
268702 0.819830
268952 0.784098
269077 0.775115
269201 0.781278
269326 0.824991
269388 0.878777
269450 0.978519
269513 1.17504
269544 1.33842
269575 1.57950
269606 1.94622
269637 2.52304
269668 3.45799
269684 4.15439
269699 4.98272
269720 6.46245
269760 9.72479
269780 10.5848
269801 10.2721
269861 6.32107
269881 5.23762
269901 4.39432
269921 3.74605
269940 3.26808
269960 2.87339
269980 2.56172
270019 2.11856
270059 1.80993
270098 1.59602
270137 1.43719
270176 1.31533
270255 1.13967
270334 1.02083
270413 0.934465
270491 0.868810
270649 0.770619
270806 0.698872
270964 0.644080
271121 0.644097
274898 0.644519
274899 0.834948
274900 3.70491
274901 1.31923
274902 0.657479
274903 0.644520
275031 0.644534
275160 0.644549
275290 0.644563
275419 0.723274
275520 0.885884
275620 1.09009
275721 1.36120
275821 1.73460
275922 2.30824
275972 2.72524
276022 3.29612
276072 4.11779
276122 5.36828
276172 7.37814
276197 8.83459
276222 10.7056
276311 20.1476
276340 21.9322
276370 21.4654
276458 13.8534
276506 10.7545
276554 8.82479
276602 7.65030
276649 6.94876
276697 6.51789
276744 6.27726
276839 6.12184
276935 6.22336
277220 7.15193
277671 8.91454
278121 9.90140
278571 9.89120
279021 9.26999
279520 8.35082
280018 7.46254
280268 7.06059
280517 6.69421
280642 6.52364
280766 6.36490
280891 6.22779
280953 6.21723
280969 6.25924
280984 6.38293
280992 6.55147
281000 6.95462
281004 7.39576
281008 8.27058
281012 10.3032
281015 13.8596
281018 20.4294
281020 23.2189
281022 20.4202
281025 13.7404
281027 11.0488
281029 9.44424
281033 7.83234
281037 7.11447
281041 6.74159
281049 6.38754
281056 6.24376
281087 6.03068
281149 5.91122
281272 5.76629
281518 5.51583
281765 5.28838
282011 5.08145
282258 4.89090
282504 4.71582
282751 4.55069
282874 4.46700
282936 4.41803
282967 4.39454
282982 4.43126
282990 4.66139
282994 5.29413
282997 7.34514
283000 12.5020
283003 8.44515
283005 6.59785
283007 5.76027
283011 5.08795
283019 4.70228
283034 4.52621
283065 4.43403
283127 4.36832
283251 4.28800
283498 4.15849
283622 4.10167
283745 4.05502
283807 4.04142
283869 4.05189
283900 4.08672
283931 4.19560
283947 4.34459
283962 4.68099
283970 5.08060
283977 5.77357
283981 6.48707
283985 7.67976
283989 9.80670
283992 12.5080
283998 20.7956
284000 21.9871
284002 20.8063
284008 12.3371
284012 8.92090
284015 7.44674
284021 5.87238
284027 5.12645
284033 4.72430
284045 4.33226
284057 4.15503
284081 4.00196
284105 3.93646
284153 3.87524
284201 3.84118
284393 3.75230
284778 3.60953
284971 3.54622
285163 3.49329
285259 3.47737
285355 3.48804
285403 3.52691
285451 3.65085
285475 3.81337
285499 4.20169
285511 4.62587
285523 5.46466
285529 6.21615
285535 7.40773
285541 9.38249
285544 10.8322
285547 12.6937
285557 20.5931
285560 21.4659
285564 20.0107
285573 12.7349
285577 10.3382
285580 9.00211
285586 7.17933
285592 6.07035
285598 5.36374
285611 4.51866
285623 4.12549
285648 3.74041
285673 3.57177
285723 3.42576
285772 3.36127
285872 3.29331
285971 3.25121
286170 3.18639
286368 3.13069
286766 3.02898
287163 2.93564
287561 2.84835
287958 2.76784
288157 2.73189
288356 2.70569
288456 2.70527
288555 2.73912
288605 2.80063
288654 2.96930
288679 3.18249
288692 3.38118
288704 3.67256
288717 4.21466
288729 5.15629
288735 5.94145
288741 7.10207
288747 8.86232
288753 11.5387
288766 19.8967
288770 20.9048
288775 19.4286
288787 11.6807
288791 9.78631
288794 8.66578
288800 7.01863
288807 5.77648
288813 5.06927
288826 4.14923
288838 3.68391
288851 3.37893
288863 3.19668
288888 2.97151
288914 2.84449
288939 2.77002
288989 2.68425
289090 2.60337
289191 2.56010
289393 2.50197
289595 2.45377
289999 2.35579
290201 2.31524
290252 2.33122
290302 2.42287
290327 2.56784
290340 2.71555
290352 2.94342
290365 3.38535
290377 4.17612
290384 4.98252
290390 6.04419
290396 7.66333
290402 10.1386
290416 19.0972
290420 20.5045
290425 19.8564
290438 12.6363
290443 10.4107
290448 8.74597
290453 7.51517
290458 6.59801
290468 5.36928
290477 4.67716
290487 4.16467
290497 3.81298
290516 3.38940
290536 3.12571
290555 2.96362
290593 2.76678
290632 2.65004
290670 2.57597
290709 2.53108
290728 2.56714
290738 2.78576
290743 3.39369
290745 4.14079
290747 5.89048
290750 10.6956
290753 6.72307
290756 4.21861
290758 3.58604
290763 2.97526
290772 2.68347
290791 2.54151
290828 2.47080
290902 2.41488
291050 2.35331
291347 2.27563
291644 2.21721
291941 2.16786
292238 2.12936
292387 2.11902
292535 2.12346
292684 2.16390
292758 2.21451
292832 2.30851
292907 2.49240
292944 2.64472
292981 2.86806
293018 3.20500
293055 3.72908
293092 4.56649
293129 5.91053
293205 10.2938
293230 11.1207
293256 10.8698
293331 7.25592
293352 6.40093
293373 5.70591
293394 5.14800
293415 4.70050
293457 4.04604
293498 3.61374
293540 3.30205
293582 3.07549
293624 2.90531
293665 2.77659
293749 2.58717
293832 2.46014
293916 2.36719
293999 2.29743
294166 2.19650
294333 2.12558
294500 2.07122
294666 2.02711
295000 1.95569
295333 1.89741
295667 1.84586
295834 1.82106
295917 1.80754
295959 1.79783
295980 1.78782
295990 1.77679
295995 1.77388
295997 1.80546
295998 1.89807
295999 2.45565
296000 8.24810
296001 3.07850
296002 2.24747
296004 1.96053
296008 1.86266
296016 1.82560
296031 1.80932
296062 1.79842
296124 1.78705
296248 1.76941
296496 1.73728
296992 1.67689
297983 1.56367
298974 1.45704
299470 1.41292
299594 1.40960
299718 1.42456
299780 1.45611
299842 1.55096
299873 1.67576
299904 1.98228
299920 2.34548
299935 3.05175
299943 3.76114
299950 4.77930
299954 5.64225
299958 6.81908
299962 8.43371
299965 10.0130
299977 18.1754
299980 18.8723
299984 17.7177
299995 10.1124
300000 7.66271
300004 6.27947
300009 5.05832
300013 4.36137
300022 3.34356
300031 2.75539
300049 2.14736
300066 1.87025
300101 1.61124
300136 1.50061
300206 1.40674
300276 1.36570
300417 1.32458
300557 1.29984
300838 1.26218
301119 1.22906
302243 1.10301
302805 1.03902
303367 0.971990
303648 0.935831
303929 0.895287
304210 0.843022
304350 0.814730
304385 0.820936
304420 0.872969
304438 0.967860
304455 1.21818
304464 1.53533
304473 2.21848
304478 2.96382
304482 3.95186
304486 5.56940
304490 8.25482
304498 16.8996
304500 18.0614
304503 17.3373
304510 10.6118
304514 7.72473
304517 6.24019
304523 4.38217
304530 3.21956
304536 2.63902
304549 1.96015
304561 1.64411
304586 1.32556
304611 1.17820
304662 1.04040
304712 0.977149
304813 0.913018
304913 0.877858
305114 0.832648
305315 0.799127
305718 0.742550
306120 0.690838
307729 0.648190
310823 0.648536
310848 0.910425
310873 1.36437
310886 1.73077
310898 2.19734
310911 2.91140
310923 3.86083
310936 5.36921
310948 7.40464
310959 9.95332
310980 15.7156
310990 17.2397
311001 16.7778
311032 9.89652
311046 7.44096
311059 5.81871
311072 4.65879
311085 3.81769
311098 3.19480
311111 2.72316
311137 2.07084
311164 1.63911
311190 1.35773
311216 1.15639
311242 1.00674
311295 0.798676
311347 0.667727
311399 0.648601
313959 0.648887
314168 0.648910
314273 0.648922
314377 0.653505
314464 0.784181
314507 0.891573
314550 1.06218
314593 1.37060
314615 1.64106
314636 2.04287
314658 2.75326
314669 3.31089
314679 4.01693
314690 5.13710
314701 6.84039
314707 8.14542
314712 9.51374
314722 13.2557
314743 24.3895
314750 25.8951
314757 24.4594
314778 13.4420
314785 10.6789
314791 8.85714
314797 7.43889
314803 6.33186
314815 4.76917
314827 3.76229
314840 3.03978
314852 2.58086
314876 2.00332
314901 1.66180
314925 1.46207
314973 1.24664
315022 1.14671
315070 1.10299
315167 1.08926
315265 1.12238
315362 1.17798
315556 1.32772
315751 1.51420
315945 1.72994
316140 1.97606
316334 2.25015
316723 2.88806
317112 3.63877
317890 5.37768
318769 7.26253
319647 8.38075
320525 8.52939
320964 8.33620
321184 8.19703
321403 8.03958
321599 7.89231
321697 7.84024
321746 7.90159
321759 7.99324
321771 8.22008
321777 8.48569
321783 9.05307
321789 10.5557
321792 12.3335
321795 15.8106
321798 21.3521
321800 23.4177
321802 21.3982
321805 15.8534
321808 12.3540
321810 11.0337
321814 9.59744
321819 8.78802
321823 8.45594
321832 8.09073
321840 7.94166
321858 7.79109
321875 7.72655
321944 7.61225
322083 7.47557
322360 7.22671
322915 6.73744
323193 6.49906
323470 6.26673
323747 6.03519
323886 5.91005
323955 5.84095
323990 5.84079
324007 6.00973
324016 6.53736
324020 7.26890
324024 9.03409
324030 13.8228
324033 12.6858
324036 10.3827
324040 8.45192
324044 7.49951
324051 6.75579
324065 6.25913
324093 5.99361
324149 5.84421
324262 5.71500
324488 5.53425
324714 5.37361
324940 5.22179
325844 4.67238
326748 4.19103
327651 3.75305
328555 3.32601
329007 3.10042
329458 2.84990
329684 2.70671
329910 2.54408
330136 2.35186
330249 2.23969
330362 2.11280
330475 1.96678
330588 1.79549
330701 1.59036
330814 1.33962
330927 1.02871
331040 0.650797
331265 0.650822
331286 0.650824
331307 0.681125
331328 1.06732
331348 1.57526
331369 2.27000
331389 3.07946
331430 5.01623
331472 6.83511
331513 7.90588
331554 8.23959
331595 8.10341
331774 6.44595
331819 6.10510
331863 5.81631
331908 5.56038
331952 5.34272
332042 4.97677
332131 4.69307
332220 4.46466
332309 4.27654
332399 4.11687
332488 3.98202
332666 3.76210
332844 3.58840
333022 3.44581
333201 3.32456
333379 3.22011
333557 3.12778
333735 3.04487
334092 2.89987
334270 2.83732
334359 2.81605
334404 2.84133
334426 2.98450
334437 3.47380
334440 3.93531
334443 5.02616
334446 8.43660
334448 15.2438
334449 20.5710
334450 23.5476
334451 20.6616
334452 15.3759
334454 8.56185
334456 5.82808
334459 4.26098
334465 3.34045
334477 2.95111
334501 2.81353
334550 2.75846
334648 2.71653
334844 2.65434
335235 2.54440
335627 2.44388
336018 2.35058
336801 2.17874
337584 2.02061
338367 1.87097
339150 1.72638
339542 1.65686
339933 1.59900
340129 1.59014
340227 1.60280
340324 1.64315
340422 1.75008
340471 1.85881
340520 2.04503
340569 2.38397
340594 2.66635
340618 3.05796
340643 3.66696
340667 4.56877
340691 5.99011
340715 8.24973
340732 10.5302
340764 15.6447
340780 17.1474
340797 16.8222
340845 10.6141
340864 8.60626
340883 7.15415
340902 6.14527
340920 5.51508
340939 5.17162
340957 5.25821
340967 5.62707
340976 6.36205
340985 7.86560
340990 9.30626
340994 10.9337
341006 17.7704
341010 18.7059
341014 17.7146
341026 10.5095
341032 8.05639
341038 6.47696
341044 5.44745
341050 4.75132
341062 3.90240
341073 3.45095
341096 2.92714
341119 2.64178
341166 2.31884
341212 2.13646
341259 2.00979
341305 1.91810
341397 1.78802
341490 1.69616
341582 1.62490
341675 1.55726
341721 1.51528
341744 1.50158
341756 1.59567
341762 2.00048
341765 2.87817
341767 4.53480
341770 8.99069
341773 5.87223
341776 3.52894
341779 2.66789
341785 2.07690
341797 1.77233
341820 1.63433
341866 1.55993
341959 1.50222
342144 1.43576
342514 1.34141
342885 1.26472
343255 1.19660
343626 1.13392
343996 1.07861
344182 1.05783
344367 1.05519
344460 1.07726
344552 1.15887
344599 1.27481
344622 1.38111
344645 1.55683
344668 1.87324
344680 2.14700
344691 2.51740
344703 3.14464
344714 4.08377
344720 4.84100
344726 5.86067
344732 7.23962
344737 8.73632
344755 15.6342
344760 16.3224
344766 15.3998
344783 8.82489
344791 6.58027
344799 5.06156
344807 4.03791
344815 3.33331
344831 2.47188
344846 2.01709
344862 1.71899
344877 1.53610
344908 1.31034
344940 1.18282
344971 1.10717
345033 1.02004
345158 0.938311
345283 0.894881
345533 0.837347
345783 0.791214
346283 0.707556
346782 0.652557
347282 0.652613
348031 0.652696
348156 0.652710
348281 0.656777
348344 0.738276
348406 0.858087
348469 1.04391
348531 1.33142
348563 1.54354
348594 1.80979
348625 2.15781
348656 2.61882
348687 3.23759
348718 4.07760
348749 5.22498
348780 6.78276
348813 8.98125
348878 14.1739
348910 15.6697
348943 15.4000
348975 13.7088
349040 9.37646
349080 7.31698
349119 5.84352
349158 4.77105
349197 3.98229
349237 3.37833
349276 2.92970
349354 2.30199
349433 1.89003
349511 1.61185
349589 1.41357
349667 1.26916
349746 1.16318
349824 1.09164
349903 1.05313
349981 1.05996
350060 1.15128
350099 1.26093
350138 1.46025
350177 1.84307
350197 2.18005
350216 2.66531
350236 3.48151
350246 4.08408
350255 4.79693
350265 5.85761
350275 7.32262
350285 9.36622
350294 11.8690
350321 22.1278
350330 23.5404
350339 22.1946
350366 12.0273
350373 10.0178
350380 8.40600
350393 6.23689
350407 4.71676
350420 3.77193
350434 3.06495
350447 2.59428
350473 1.97322
350500 1.58317
350526 1.33890
350579 1.04197
350632 0.875990
350685 0.771238
350791 0.653005
350897 0.653017
353655 0.653325
353682 0.806913
353708 1.24023
353722 1.71795
353735 2.53529
353742 3.26727
353748 4.17853
353755 5.76166
353761 7.76715
353776 14.5939
353780 15.2397
353785 14.3113
353799 7.87821
353804 6.15928
353809 4.88063
353818 3.36321
353827 2.45880
353836 1.89138
353855 1.23537
353873 0.925407
353910 0.653354
354968 0.653472
355261 0.653505
355553 0.804553
355845 1.01272
356137 1.29458
356277 1.46526
356417 1.66480
356557 1.89214
356627 2.00294
356662 2.05690
356680 2.19266
356689 2.75891
356693 3.95342
356695 5.53150
356697 8.85394
356699 14.2493
356700 15.9832
356701 15.6109
356703 11.3665
356706 6.79554
356708 5.36114
356712 4.01097
356721 3.07534
356738 2.69302
356772 2.59670
356840 2.71322
356909 2.91401
356977 3.15373
357114 3.75785
357250 4.54991
357285 4.79041
357420 5.86342
357555 7.04697
357690 7.72307
357757 7.49563
357824 6.75584
357892 5.58412
358027 3.03663
358094 2.05798
358162 1.33076
358196 1.05706
358229 0.840257
358296 0.653844
358615 0.653880
358698 0.653889
358866 0.653908
359033 0.706667
359368 1.25370
359702 1.84272
360371 3.10280
361040 4.40427
361449 5.16524
361857 5.85113
362062 6.15738
362266 6.44271
362368 6.59731
362419 6.69298
362470 6.82214
362521 7.03122
362547 7.20479
362572 7.45725
362598 7.88499
362623 8.60994
362636 9.20948
362649 10.0629
362662 11.2960
362674 12.9142
362709 20.1859
362720 21.6221
362732 21.3722
362766 15.6784
362782 13.5156
362798 12.0091
362814 10.9696
362830 10.2393
362846 9.71317
362862 9.32440
362893 8.81609
362925 8.49089
362957 8.27909
363020 8.03640
363084 7.90880
363147 7.83961
363274 7.77698
363401 7.75628
363528 7.74831
363781 7.73058
364288 7.61259
364795 7.36965
365300 7.02979
365804 6.62586
366309 6.18511
366561 5.96528
366687 5.88703
366719 5.89664
366750 5.97027
366766 6.09058
366782 6.41325
366790 6.79940
366798 7.63995
366802 8.46796
366806 9.91065
366810 12.6086
366813 16.1545
366817 23.1480
366819 25.8448
366820 26.2564
366822 24.8234
366827 16.3668
366831 11.9714
366834 10.0996
366838 8.62317
366841 7.94065
366848 7.03355
366855 6.57679
366869 6.15066
366882 5.97028
366909 5.79657
366936 5.71204
366990 5.61520
367044 5.54745
367260 5.33060
367692 4.93502
368125 4.55197
368557 4.18153
369422 3.47744
370287 2.82489
372017 1.67392
372882 1.18115
373315 0.959495
373500 0.872264
373502 0.871365
373531 0.857644
373639 0.815074
373693 0.818093
373720 0.901875
373734 1.21649
373741 2.08348
373744 3.37569
373747 7.10255
373749 11.7678
373750 12.9015
373753 7.13332
373755 4.20371
373757 2.79384
373760 1.84285
373766 1.19788
373779 0.881868
373804 0.771285
373855 0.719304
373957 0.668024
374161 0.656601
377216 0.661500
377231 0.661524
377238 1.12058
377242 2.03114
377245 3.55336
377250 7.34535
377255 4.62260
377259 2.61217
377263 1.69346
377270 1.03725
377285 0.661611
377315 0.661659
377968 0.662706
378205 0.777504
378443 0.933800
378680 1.10388
378799 1.19582
378918 1.30383
378978 1.38453
379037 1.54136
379067 1.72005
379096 2.10071
379111 2.49969
379126 3.22546
379134 3.86476
379141 4.66850
379148 5.81238
379155 7.43509
379162 9.64625
379174 14.1184
379180 15.4564
379187 15.1990
379205 9.97212
379214 7.81424
379222 6.45438
379230 5.48301
379238 4.78079
379255 3.83124
379271 3.31326
379288 2.96902
379304 2.75526
379336 2.49983
379369 2.36087
379402 2.28497
379467 2.22496
379533 2.22226
379598 2.24702
379729 2.33698
379860 2.45356
379991 2.58388
380253 2.86676
381300 4.08235
382440 5.29260
384150 6.51284
384720 6.74642
385005 6.83384
385290 6.90292
385575 6.95452
385717 6.97415
385788 6.98372
385824 6.99454
385842 7.02752
385851 7.15651
385855 7.51960
385857 8.29914
385859 11.6506
385860 13.8218
385861 11.7216
385863 8.36348
385865 7.56482
385869 7.18442
385876 7.05712
385891 7.01231
385920 7.00155
385979 7.00223
386097 7.00909
386333 7.02628
386451 7.05048
386510 7.07858
386569 7.13433
386628 7.25600
386658 7.37376
386687 7.56141
386717 7.90221
386746 8.52631
386761 9.06890
386775 9.81101
386790 11.0006
386804 12.6594
386839 19.1627
386850 20.4793
386862 20.3006
386896 15.0767
386907 13.6031
386917 12.5344
386927 11.6851
386937 11.0108
386957 10.0382
386977 9.39380
386997 8.94872
387017 8.62935
387057 8.21162
387098 7.95235
387138 7.78640
387218 7.58473
387317 7.44784
387415 7.36649
387612 7.27015
387809 7.21062
388005 7.16566
388398 7.09073
388791 7.02078
389578 6.87579
390364 6.71905
391151 6.55104
391937 6.37280
392330 6.27860
392723 6.17823
393116 6.06552
393313 6.01893
393362 6.03086
393411 6.10110
393436 6.20511
393460 6.42871
393473 6.66138
393485 7.01540
393497 7.60789
393509 8.61163
393533 12.0493
393540 12.6873
393548 12.6040
393571 10.0089
393587 8.64318
393603 7.83980
393619 7.35610
393635 7.04726
393667 6.69020
393699 6.49650
393763 6.29580
393826 6.19301
393954 6.07881
394081 6.01019
394336 5.91372
394591 5.83632
395101 5.69819
395610 5.56677
396629 5.30321
397648 5.02681
398668 4.72581
400000 4.36650
400000 4.36645
400950 4.11020
401070 4.43820
401220 5.30800
401380 7.79780
401450 8.34060
401520 7.53280
401650 5.20530
401720 4.41730
401870 4.13369
401990 4.33680
402170 4.88170
402340 5.99549
402520 8.38250
402710 11.3350
402800 11.4320
402860 11.1120
403140 6.60180
403420 3.68939
403650 2.71900
403910 1.78890
404130 1.44510
404280 1.37400
404420 1.54620
404660 2.23400
405090 4.40690
405340 5.47910
405790 6.50090
406550 6.57179
408910 5.73240
409170 5.97600
409340 5.30670
409620 5.58060
409970 5.37850
411770 5.06760
411990 5.67200
412210 5.05200
415600 4.74700
416140 5.19199
416370 5.97050
416550 5.38050
416680 5.30170
416890 5.68410
417260 7.20950
417560 10.8980
417710 13.6450
417830 14.3630
417900 13.9470
418230 9.84920
418480 8.45050
418580 8.59390
418710 9.27590
419050 6.09710
419190 5.73230
419450 5.70010
419850 5.01709
421890 4.16470
425280 3.88929
428050 3.86000
428280 4.49010
428470 3.76400
429280 3.42180
430480 3.37860
430710 3.66210
430830 3.32410
431570 3.28749
431760 3.73590
431950 3.16850
432340 2.98590
433050 2.89430
433220 3.14970
433440 3.03100
433630 2.66570
434010 3.13289
434160 4.11940
434290 5.56310
434370 5.88199
434450 5.68210
434680 3.12260
434910 2.26370
435090 2.21769
435280 1.84360
435940 1.44130
436210 1.18550
436690 0.879208
437000 0.757375
437250 0.757776
437450 0.883848
437610 1.92599
438270 5.90860
439190 6.37949
439360 5.93580
439800 5.87749
440330 5.37490
442070 4.79780
442340 5.10360
442700 4.65840
444070 4.18450
445040 4.20160
445530 4.62940
445940 4.15590
446330 4.43890
447180 4.05090
447530 5.00579
447740 6.71150
447830 7.86290
447900 8.03850
447990 7.73430
448130 8.19750
448330 10.6380
448400 11.1490
448500 10.2900
448610 7.66270
448780 5.45320
448940 4.81650
449140 4.51320
449250 4.00790
450460 3.76250
450610 3.95000
450810 6.27630
450920 6.04500
451120 4.62170
451320 3.89240
451940 3.45230
452240 3.65419
452570 3.33620
453100 3.45179
454000 3.30780
454370 3.05430
454670 3.40860
454920 3.06190
456120 3.07609
456380 3.29320
456460 3.99300
456730 4.50659
456960 3.19200
457300 3.63280
457420 4.22530
457580 6.50010
457660 6.88710
457760 6.37660
457910 4.45530
458260 3.28560
458480 3.26390
458630 3.40130
458830 3.04740
459660 2.98080
459940 3.36110
460110 2.83509
460540 2.70550
462220 2.50340
463140 2.28510
463470 2.43060
463680 2.80220
463840 4.19370
463940 4.88860
464030 4.50170
464220 2.88320
464440 2.05040
464910 1.95320
465290 1.62960
465480 1.52470
465830 1.43890
466740 1.01380
467260 0.838289
467910 0.806945
468370 0.807683
468800 0.808373
469010 0.912239
469500 3.09130
469910 4.76090
470190 5.23410
470530 5.56020
471180 5.51080
473490 4.37770
473700 4.63100
474080 4.42680
474460 4.03090
477890 3.53640
480110 3.38670
480250 3.60660
480440 4.73000
480640 7.21970
480740 7.45280
481020 4.15670
481220 3.32440
482960 3.01820
484350 2.96340
484690 3.41860
484860 4.03060
485130 3.44980
485730 3.04940
486390 2.99470
487070 3.21580
487500 2.93360
487780 3.14190
488540 3.05610
488850 3.49790
489130 4.75020
489340 7.66190
489410 8.07950
489480 8.16161
489580 7.36800
489690 7.10840
489790 7.47690
490030 10.0030
490130 9.69560
490270 8.34610
490390 6.34610
490650 4.29630
491010 3.40010
491300 3.36300
491500 2.83490
492970 2.59000
493210 3.16620
493330 3.91590
493460 3.69450
493710 2.61390
496050 1.94560
497120 1.50640
497390 1.52330
497530 1.82460
497750 1.30870
497960 1.12230
498290 1.06210
498500 1.27010
498630 1.86310
498830 3.25210
498900 3.52800
499000 3.15260
499130 1.25400
499250 1.08380
499410 1.27020
499640 2.68160
500000 4.10530
500250 4.90040
500500 5.13140
500890 5.18940
501730 4.56620
502100 4.69290
502300 4.41500
502450 4.57800
502620 5.47890
502840 7.81380
502950 8.40230
503030 7.77720
503250 5.11970
503450 4.18400
503810 3.65260
504440 3.60670
504720 3.82570
505030 3.54850
505940 3.17880
507350 2.84370
507710 3.56020
508190 2.80900
509190 2.82030
509820 3.23650
510470 3.97690
510730 4.78480
511200 9.93770
511420 8.90090
511660 5.79000
512050 4.29940
512180 4.02330
512350 4.32250
512700 7.08420
512830 7.52350
512940 7.08530
513130 4.80780
513330 3.83770
513780 3.50230
514260 3.90670
514560 3.37520
515430 3.10940
516760 2.88350
525240 2.53460
525480 2.77640
525860 2.57370
526300 2.56520
526430 2.80690
526700 4.01690
526800 4.94590
526910 5.19640
527000 4.69470
527230 2.79970
527840 2.45660
529850 2.43430
530010 2.74510
530380 2.48010
530800 2.52700
530970 2.77610
531350 4.99930
531620 3.15830
531930 2.44880
532400 2.16020
532620 2.18351
533030 3.61980
533150 3.78860
533230 3.47870
533410 2.40200
534670 1.58280
535060 1.01640
535320 0.869428
535510 1.00860
535580 3.73060
535640 4.46490
535990 3.12760
536340 2.69780
536820 2.48570
537060 2.55210
537440 2.87850
537750 3.71100
537960 5.35190
538160 8.11360
538280 8.69650
538380 8.28780
538720 5.03930
539130 3.34080
539590 2.82050
540090 2.53170
540810 2.32370
543050 2.11520
543440 2.49700
543720 3.47850
543920 4.94830
544050 4.57760
544330 3.02940
544450 2.86580
544780 4.14910
545160 9.15580
545260 9.54600
545700 4.39240
545970 3.45630
546490 3.09800
546750 2.69320
547370 2.36650
549380 2.28070
549860 2.04220
550230 2.04740
550510 2.23950
550940 1.94100
551380 1.92500
551490 2.08250
551730 2.73320
551950 3.88450
552050 3.70410
552320 2.15570
552670 1.87530
553120 1.64770
554210 1.47060
555390 1.36960
555830 1.62250
556230 1.33430
556750 1.15590
557250 1.25990
557590 1.88480
557830 3.11870
558290 8.45120
558410 7.55270
558620 4.49690
558980 2.66420
559790 1.20790
559990 1.18220
560320 2.49530
560680 6.30230
560860 9.28590
560970 9.60580
561310 6.74570
561630 5.48570
562200 4.25020
562970 3.49640
563840 3.06740
564490 3.09330
564850 4.17310
564940 4.80980
565340 2.82020
566210 2.54281
566510 2.65230
566830 2.92480
567150 2.46760
568120 2.45590
568490 2.98720
568670 3.63200
568770 4.45850
568870 4.65760
569000 4.25870
569120 3.16630
569340 2.50190
569620 2.24230
570940 2.17320
571190 2.54870
571660 2.04601
572770 1.91290
573070 1.99381
573240 2.35200
573610 1.89550
574000 1.78580
574320 1.58960
574460 1.39290
574670 1.47380
574710 1.76830
574800 3.57140
574950 3.12590
575180 3.02240
575520 3.51380
576140 5.41670
576850 9.62620
577000 9.97240
577120 9.71400
577960 5.61310
578320 4.70530
578710 4.36030
578920 4.63210
579300 7.29440
579430 6.95050
579540 5.15950
579810 3.56270
580300 3.12100
580550 3.34180
581010 2.67880
583920 2.21220
586370 2.00530
587280 2.02260
587870 2.19180
589080 1.83530
589510 2.11340
589780 3.48790
589860 3.67360
590000 3.03310
590230 1.98040
590660 1.81020
590830 2.14590
591070 1.69500
591530 1.53730
593990 1.60110
594330 2.37040
594640 3.42460
594890 2.85810
595180 2.95870
595440 2.75310
595610 1.86230
596130 1.83620
596500 1.92361
596720 2.11390
597170 1.79300
598000 1.61960
598400 1.75230
598620 2.11780
599040 1.75630
599390 1.57210
600000 1.49510
600250 1.46370
600530 1.57200
601090 1.39290
602570 1.26130
602970 2.88650
603270 2.48340
603480 1.76810
604700 1.43880
605620 1.49500
607050 1.18740
607200 1.47780
607560 1.02710
608080 0.892129
609330 1.04800
609410 1.65120
609540 1.80690
609830 1.00540
610000 0.963360
611180 0.893095
611930 0.893329
612480 0.893501
613030 1.65580
613410 3.44500
613520 4.54261
613690 4.82840
613860 4.64470
614020 5.34370
614170 6.40940
614360 6.69560
614740 5.10610
614930 4.55771
615260 4.39940
616220 2.85800
616890 2.81560
617260 2.49210
617960 2.27920
618160 2.68890
618410 2.14320
619990 1.75890
620240 1.76900
620550 2.23940
620940 1.77410
621720 1.50100
622150 1.59210
622810 1.60720
623040 2.17361
623350 2.49720
623780 1.64780
624150 1.45050
625800 1.27850
626000 2.02700
626210 1.98650
626640 1.41510
627240 1.27360
628190 1.29370
628800 1.20270
629570 1.21300
629960 1.40010
630180 2.18870
630490 3.41670
630640 3.01830
630900 1.33940
631460 1.03600
631970 1.00550
632410 1.03570
632650 1.51630
632840 2.41580
633170 2.08170
633270 1.48080
633660 1.31400
634570 1.55670
635200 1.18950
635510 1.33310
635690 2.02160
636080 1.74180
636220 1.46270
636440 1.86600
636680 3.41370
636940 4.06340
637300 1.15050
637580 0.988040
638680 0.901675
640690 0.902302
640790 1.21100
640910 1.41590
641090 1.22240
641340 0.902505
642060 0.902729
642470 0.902857
643320 0.903122
643550 1.64750
643800 1.51370
643980 1.09800
644410 1.12400
644920 1.59700
645020 2.43900
645310 3.59780
645570 5.93670
645860 8.01920
646060 8.73960
646590 3.81340
646960 2.01960
647280 1.36930
648000 1.00000
648810 0.904835
652110 0.905865
652520 1.88840
652810 3.47290
652960 3.85960
653250 2.29730
653520 1.14520
654130 0.906496
654560 1.04670
655040 4.73360
655160 4.83850
655460 2.67710
655880 0.907042
656360 0.907191
656540 1.00830
656800 2.57120
657110 5.30960
657260 6.08300
657380 6.05130
657650 5.27760
657850 5.36311
657980 4.83880
658440 1.79740
659180 1.22860
660000 1.19360
660030 1.18960
660510 1.09540
661570 1.49840
661960 1.47220
662390 1.61960
662620 2.22590
662760 2.10570
662990 1.66320
663360 1.56780
664120 1.80170
664590 2.53880
664850 3.61800
665030 3.87280
665160 3.66530
665410 2.73780
666050 2.36940
668430 2.93260
669270 3.42340
670090 3.68670
670290 4.71550
670480 6.01060
670670 6.30701
670960 4.28760
671580 3.61430
672340 4.91470
672500 4.83400
672640 4.22810
673430 4.15670
674370 4.53190
674830 4.09720
675180 4.62100
675500 3.99550
675890 4.29970
677700 3.99580
679470 4.00120
679960 4.59310
680390 3.83040
680870 4.22940
681390 3.50270
682760 3.22240
683200 3.87210
683540 3.21670
683690 3.12780
683930 3.42610
684250 4.27320
684380 5.69830
684460 6.04110
684620 5.52840
685180 2.74580
685630 2.46590
687760 1.65580
688170 1.68560
688530 2.42380
688760 3.68830
688910 4.33130
689090 4.07420
689500 1.86270
689880 1.63800
690000 2.15380
690220 3.09980
690430 3.49280
690530 3.20730
690920 1.19910
691190 0.984880
691940 0.918291
692170 0.918364
692410 0.918439
692930 2.39900
693270 3.89900
693470 4.18340
693700 4.30920
693980 4.06570
694410 4.79740
695010 8.28630
695270 8.48300
695660 7.55700
696020 5.04150
696470 2.93480
697690 1.89180
699190 1.31640
700000 1.16200
701280 0.921206
701580 1.40040
702040 0.957400
702300 0.921523
703890 0.922019
706150 0.922724
710000 1.69760
710490 1.80770
712780 2.54010
713680 3.68750
714300 3.03790
714450 3.05840
714730 3.42830
714940 4.06680
715130 4.25860
715290 3.77970
715630 3.94080
715970 5.05260
716150 6.04090
716300 6.36430
716490 6.28440
716660 5.52540
717230 4.52580
717580 4.25820
718510 4.12486
719150 4.03310
719460 4.18610
720080 4.49100
720710 6.04180
720860 5.85830
721250 6.33010
721760 4.72040
722260 4.29690
724800 4.34060
725320 4.46150
726030 5.24270
726560 6.80141
727040 9.84340
727210 9.33650
727580 6.57670
728030 4.57850
728730 3.50590
730340 3.17470
730680 3.63221
730900 4.42280
731070 4.57060
731210 4.27640
731580 2.84291
735240 1.69240
735770 1.66320
736340 2.50130
736650 4.90020
736990 8.70221
737180 8.20680
737550 4.77301
737860 2.84300
738250 1.86780
739210 1.07800
739800 1.11720
740000 1.22450
741070 1.79920
741460 2.53090
742680 3.53510
744250 4.36420
744680 5.04650
744820 5.90560
745040 5.93330
745550 4.41290
746700 3.55470
748080 3.19410
748420 3.28190
748930 4.18840
749320 6.41160
749550 6.97380
749670 6.65030
750020 4.65870
750740 2.21580
751360 1.61980
751700 1.77450
752190 3.40761
753170 5.00430
754110 5.54090
754710 7.12440
755340 10.8820
755490 11.3820
755670 10.6270
756120 7.54320
756790 5.23080
757640 4.13431
758620 4.50390
758860 3.91970
760000 3.44941
760940 3.06180
762970 2.51360
763480 2.56101
763950 3.24041
764380 3.19291
764580 2.34670
764910 2.32290
765290 3.22820
765650 4.76820
765850 5.84790
766070 6.25620
766590 3.74110
767170 2.19181
767900 1.53640
768440 1.56000
769620 3.27671
769920 4.32701
770140 5.74550
770350 6.06941
770530 5.88150
770720 5.16690
770910 4.99751
771410 5.47940
771980 4.43871
772810 4.40680
773200 4.12680
775260 4.14630
775880 3.88610
776640 4.21140
777010 4.84090
777370 4.93940
777550 4.15980
777790 3.59390
778410 3.61990
778950 4.42520
779660 6.63510
779850 5.94760
780250 3.95130
780610 3.17781
781390 3.67170
781980 5.90401
782170 5.69360
782540 3.65881
783130 2.87190
783630 2.88560
784310 3.36630
785180 5.22900
785560 5.75950
786240 5.43490
786810 5.69470
787280 7.03800
787810 9.99670
787950 11.2320
788140 11.6210
788330 11.2090
788720 7.95931
788960 6.45350
789340 5.54260
790000 4.96380
791180 3.92780
791680 3.85290
791890 3.49460
792100 3.41940
792680 3.92870
793070 5.09960
793270 5.10931
793860 3.71220
794400 3.69120
794630 4.12430
795040 4.28561
795610 3.31080
799910 2.78810
800000 2.81907
800000 2.81914
800740 3.09220
801390 2.84340
802290 2.85530
802880 3.57191
803120 4.32920
803600 6.51750
803840 6.65580
804010 5.74910
804400 4.08621
804810 3.35970
805090 3.17430
805330 3.35950
805830 4.66990
806000 4.44390
806240 3.73420
806830 3.08510
807370 2.74540
810000 2.39760
811200 2.23880
812570 2.12590
812940 2.22741
813130 2.72771
813720 3.76431
814190 2.72740
814630 2.54290
814970 2.78750
815320 3.51420
815560 4.63470
815840 5.18180
816210 4.93921
816470 3.87130
816810 3.03760
817420 2.65581
818220 2.68650
818700 3.13910
819070 4.15720
819310 4.47920
819700 3.02571
819900 2.39540
820520 2.16030
821570 1.94040
822590 1.81910
823430 1.53850
824320 1.05330
824630 1.03830
824900 3.29740
825070 4.59480
825400 3.98960
825740 3.36580
826120 2.94130
826610 3.21450
827140 4.61730
827610 7.59860
827850 7.77230
828520 3.49500
829090 2.44850
830210 1.87220
831540 1.65200
832090 1.43240
832450 1.51540
832850 2.53990
833110 2.64580
833510 2.06211
833830 1.95600
834160 2.76660
834580 4.60210
834780 5.93690
834980 6.25531
835510 3.66210
835940 2.15280
836450 1.38660
836960 1.08350
838070 1.28060
839160 3.39700
839660 3.67250
840000 3.54870
840520 3.36040
841370 2.73650
841800 2.53690
842500 2.51061
843230 2.94440
843660 3.79310
844410 7.56380
844640 7.92930
844800 7.67501
845140 5.25810
845620 3.66370
846050 2.77090
847490 2.03430
848370 1.81740
849100 1.78320
849420 2.57100
849650 2.52820
849990 1.58360
850400 1.47900
850560 1.79110
851010 3.37780
851150 3.60240
851400 2.87540
851830 1.80880
852720 1.21940
853520 1.04961
854310 1.04994
854720 1.25430
855240 1.69610
856200 3.33420
856860 3.62050
857500 3.64630
858230 4.16631
858570 3.48180
859640 2.95180
859970 2.70620
860460 2.69091
861100 2.95011
861120 2.96360
861500 3.68090
861770 3.57000
862000 3.23450
862180 2.97010
862270 2.93460
862500 2.83991
862750 2.73690
863000 2.77641
863350 2.83550
863780 3.95920
864000 5.23540
864290 6.91380
864460 7.37030
864640 6.90720
865000 5.05240
865210 3.96470
865610 3.29731
866000 3.85940
866070 3.96530
866410 3.89700
867000 3.16260
867120 3.01730
867580 2.78271
867900 3.22460
868000 3.15120
868750 2.64580
869000 2.63820
870000 2.66821
870530 2.74430
871000 3.52940
871440 3.82150
871640 4.26110
872000 4.55600
872100 4.62520
872760 3.47950
873000 3.32740
873420 3.01020
873820 3.45620
873900 4.02550
874000 4.15390
874100 4.27650
874360 3.78290
874760 2.66810
875000 2.52980
875390 2.32710
875930 2.42661
876000 2.35251
876360 2.00100
876730 2.44860
877000 2.62160
877110 2.69200
877360 2.45610
877620 2.05400
878000 1.93330
879000 1.62020
879680 1.40170
880000 1.38970
880620 1.37150
880910 1.19730
881000 1.19910
881420 1.22000
881940 2.72730
882000 2.83220
882450 3.60890
883000 3.41831
884000 3.06930
885000 2.72280
885100 2.68340
885800 2.26191
886000 2.27900
886600 2.32800
887000 3.50090
887100 3.79940
887250 3.89590
888000 2.56390
888900 2.54950
889000 2.68950
889190 2.95320
889610 3.27390
890000 3.01161
890550 2.18800
891000 1.96910
891360 1.77300
892000 1.64860
893000 1.55470
893850 1.50920
894000 1.46610
894260 1.39870
895000 1.47930
895140 1.49590
895500 2.09400
896000 2.59800
896210 2.80920
896560 1.88350
897000 1.58410
897250 1.41210
897840 1.12480
898000 1.12770
898190 1.13420
898570 2.50170
899000 3.01470
899260 3.33110
899760 2.87870
899960 2.86520
900000 2.95400
900580 4.19550
900830 4.50830
901000 4.20340
901310 3.64500
901620 3.55680
901930 3.70980
902000 3.54150
902300 2.82050
902500 2.67710
902720 2.39190
903000 2.24500
903170 2.14770
903590 2.03620
903850 2.12780
904000 2.53590
904070 2.72380
904320 2.99170
904580 2.84510
905000 2.15770
905310 1.97710
906000 1.85540
906750 1.86050
907000 2.01020
907370 2.23520
907620 2.85010
907900 3.02150
908000 2.72180
908300 1.83090
909000 1.68930
909100 1.67100
910000 1.61850
911000 1.58070
911030 1.58250
911370 1.90430
911730 2.14790
912000 1.91260
912210 1.72850
912720 1.63070
913000 1.66390
913390 1.71830
913620 2.65500
914000 3.02230
914410 2.91290
915000 4.24840
915170 4.62399
915420 4.41000
915900 2.72360
916000 2.48740
916270 1.84080
917000 1.32610
917140 1.22640
917620 1.07528
918000 1.07541
918270 1.07551
918610 2.07450
919000 2.82940
919060 2.94770
919310 3.04520
919680 2.25020
920000 2.08410
920400 1.88820
921000 1.84620
921370 1.82590
922000 2.06810
922110 2.11220
923000 1.75360
923320 1.63090
924000 1.57550
924260 1.55730
924970 3.31260
925000 3.31410
925560 3.41230
926000 3.31150
926010 3.28250
926630 1.86060
927000 1.66840
927120 1.60080
928000 1.47580
928400 1.41860
929000 1.38570
930000 1.39830
931000 1.43220
931100 1.44390
931930 1.75320
932000 1.93310
932900 4.29070
933000 4.26020
934000 3.83350
934200 3.71190
935000 2.36090
935310 1.80030
935500 1.69010
936000 1.49420
936020 1.48350
936540 1.11540
937000 1.08197
937130 1.08201
937780 1.16330
937840 1.81760
938000 1.95520
938040 1.99120
938360 1.87390
939000 1.37390
939050 1.34060
940000 1.08300
941130 1.08339
941480 2.08600
942000 2.49940
942130 2.60190
942880 1.84850
943000 1.78930
944000 1.31610
944540 1.08457
945000 1.08473
945680 1.08496
946000 2.14190
946160 2.67950
946360 3.14340
946720 2.82730
947000 2.04740
947170 1.56630
947460 1.37300
948000 1.50090
948110 1.52120
948430 3.54870
948720 4.18270
949000 3.74430
949250 3.35179
949860 1.80230
950000 1.67020
950400 1.30280
951000 1.13500
951700 1.08704
952000 1.08715
957120 1.11300
957440 1.71830
957940 2.06380
958000 2.03000
958330 1.85190
958800 1.08949
959000 1.08956
959190 1.08963
959980 1.55410
960000 1.67450
960370 3.83010
960910 5.49710
961000 5.57020
961480 5.95059
961800 5.76660
962000 5.33139
962550 4.10559
963000 3.89240
964000 3.41149
964840 3.01249
965000 2.83170
965380 2.40820
965880 2.78219
966000 2.65119
966560 2.07010
966950 1.86090
967000 1.87310
967240 1.94430
968000 5.04279
968090 5.40090
968380 5.60560
968630 5.47200
969000 4.90970
969420 4.91469
969670 4.57010
970000 3.62499
970060 3.45080
970920 3.07350
971000 3.11180
971490 3.36570
971920 4.70040
972000 4.78759
972280 5.09850
972710 4.83900
973000 4.11130
973710 2.32369
974000 2.11269
974820 1.52100
975000 1.50670
975100 1.49840
975760 1.53880
976000 2.50199
976070 2.78650
976430 2.74779
976790 2.44070
977000 2.55900
977280 2.71760
977550 2.55870
977960 1.46930
978000 1.45700
978300 1.35560
979000 1.29670
979080 1.29190
980000 1.29330
980150 1.29950
980960 1.58090
981000 1.62730
981680 2.42259
982000 2.63920
982560 2.98660
983000 2.86800
983110 2.83160
983370 2.46000
983820 2.39289
984000 2.43140
984180 2.46750
985000 3.06430
985080 3.12340
986000 3.56500
986160 3.65030
986900 3.49000
987000 3.57900
987740 4.25020
988000 4.01810
988200 3.84359
988730 2.94200
989000 2.74170
989190 2.59280
989440 2.49059
989700 3.18269
990000 3.43140
990250 3.62269
990560 2.44110
991000 2.17950
991630 1.82830
991950 2.25750
992000 2.15640
992220 1.73110
992820 1.59560
993000 1.65550
993520 1.85030
993840 2.75550
994000 2.96840
994070 3.05870
994510 2.82529
994920 1.93890
995000 1.90090
995580 1.63370
996000 1.55420
996270 1.49840
997000 1.57950
997100 1.59240
997400 1.59030
998000 1.74920
998240 1.82320
999000 3.29090
999050 3.38840
999350 4.75499
999630 5.36410
999940 5.32890
999999 5.19074
1.00000E+06 5.18605
1.00040E+06 4.24950
1.00100E+06 4.24179
1.00200E+06 4.17089
1.00240E+06 4.12699
1.00300E+06 4.42780
1.00330E+06 4.57529
1.00400E+06 4.16070
1.00500E+06 3.58300
1.00560E+06 3.23580
1.00600E+06 2.10909
1.00700E+06 1.71910
1.00750E+06 1.76990
1.00800E+06 2.54980
1.00880E+06 3.79210
1.00900E+06 3.72370
1.01000E+06 3.36930
1.01100E+06 2.69659
1.01130E+06 2.49920
1.01200E+06 2.49909
1.01240E+06 2.50621
1.01300E+06 2.32450
1.01370E+06 2.12319
1.01400E+06 2.12920
1.01460E+06 2.12330
1.01490E+06 2.65050
1.01500E+06 2.50430
1.01540E+06 1.90670
1.01600E+06 1.70460
1.01700E+06 1.45440
1.01740E+06 1.35060
1.01800E+06 1.33400
1.01820E+06 1.32900
1.01850E+06 1.47380
1.01870E+06 1.84160
1.01890E+06 2.00020
1.01900E+06 1.87640
1.01950E+06 1.26390
1.02000E+06 1.18450
1.02050E+06 1.10469
1.02100E+06 1.10472
1.02150E+06 1.10474
1.02300E+06 1.10481
1.02330E+06 1.22830
1.02370E+06 2.62219
1.02390E+06 2.90379
1.02400E+06 2.61740
1.02440E+06 1.46600
1.02480E+06 1.10490
1.02484E+06 1.10490
1.02500E+06 1.10494
1.02530E+06 1.10501
1.02580E+06 2.28969
1.02600E+06 1.91549
1.02620E+06 1.53889
1.02630E+06 1.35089
1.02680E+06 1.21359
1.02700E+06 1.22419
1.02760E+06 1.26389
1.02800E+06 1.36739
1.02900E+06 1.66149
1.02950E+06 2.17409
1.03000E+06 3.13479
1.03080E+06 3.26099
1.03100E+06 3.16789
1.03200E+06 2.67269
1.03280E+06 2.67209
1.03300E+06 2.83179
1.03350E+06 3.22799
1.03400E+06 3.25529
1.03430E+06 3.27979
1.03490E+06 3.00059
1.03500E+06 3.04939
1.03600E+06 3.54798
1.03610E+06 3.60019
1.03700E+06 2.94179
1.03770E+06 3.18499
1.03780E+06 3.89609
1.03800E+06 3.94519
1.03830E+06 4.02408
1.03870E+06 3.86889
1.03900E+06 3.38669
1.03920E+06 3.07189
1.03970E+06 2.86239
1.04000E+06 3.14389
1.04030E+06 3.42689
1.04100E+06 4.68429
1.04150E+06 5.56609
1.04190E+06 5.46279
1.04200E+06 4.99769
1.04240E+06 3.13209
1.04280E+06 2.88049
1.04300E+06 3.01569
1.04320E+06 3.14929
1.04370E+06 4.33739
1.04400E+06 4.43049
1.04420E+06 4.48469
1.04480E+06 5.71429
1.04500E+06 5.61769
1.04520E+06 5.50699
1.04600E+06 3.68509
1.04620E+06 3.22759
1.04700E+06 2.46219
1.04770E+06 1.81499
1.04800E+06 1.72729
1.04810E+06 1.70189
1.04860E+06 1.84089
1.04900E+06 3.40099
1.05000E+06 3.37378
1.05090E+06 3.34879
1.05100E+06 3.25729
1.05170E+06 2.61179
1.05200E+06 2.53249
1.05220E+06 2.48749
1.05300E+06 2.47889
1.05400E+06 2.49369
1.05410E+06 2.49119
1.05500E+06 2.99149
1.05570E+06 3.38139
1.05600E+06 3.37469
1.05620E+06 3.36219
1.05700E+06 2.94189
1.05780E+06 2.48819
1.05800E+06 2.44709
1.05880E+06 2.28089
1.05900E+06 2.28319
1.05950E+06 2.30039
1.06000E+06 3.02939
1.06040E+06 3.62219
1.06080E+06 4.06909
1.06100E+06 3.83769
1.06150E+06 3.27580
1.06200E+06 3.50939
1.06230E+06 3.65849
1.06300E+06 3.71249
1.06320E+06 3.72259
1.06400E+06 4.15900
1.06500E+06 4.71269
1.06600E+06 4.95539
1.06630E+06 5.00860
1.06700E+06 4.71329
1.06750E+06 4.47459
1.06800E+06 3.99329
1.06900E+06 3.00599
1.06910E+06 2.90799
1.07000E+06 2.13299
1.07080E+06 1.60649
1.07100E+06 1.52329
1.07140E+06 1.37539
1.07200E+06 1.43329
1.07230E+06 2.52409
1.07300E+06 3.25270
1.07310E+06 3.36239
1.07370E+06 2.58849
1.07400E+06 2.52279
1.07420E+06 2.48799
1.07500E+06 2.94139
1.07580E+06 3.47749
1.07600E+06 3.69919
1.07670E+06 4.44529
1.07700E+06 4.59739
1.07710E+06 4.64009
1.07800E+06 3.71940
1.07870E+06 2.79139
1.07900E+06 2.72469
1.08000E+06 2.41899
1.08100E+06 2.08739
1.08110E+06 2.05789
1.08200E+06 1.99679
1.08300E+06 3.46070
1.08310E+06 3.60889
1.08390E+06 1.98369
1.08400E+06 1.93689
1.08500E+06 1.49059
1.08600E+06 1.33349
1.08630E+06 1.29049
1.08700E+06 1.30179
1.08800E+06 1.29899
1.08880E+06 1.31669
1.08900E+06 1.59629
1.09000E+06 3.03249
1.09060E+06 3.15829
1.09100E+06 2.96479
1.09170E+06 2.62409
1.09200E+06 2.36200
1.09280E+06 1.69379
1.09300E+06 1.64889
1.09350E+06 1.55499
1.09400E+06 1.59499
1.09440E+06 1.63689
1.09500E+06 2.89649
1.09510E+06 3.10179
1.09590E+06 3.36169
1.09600E+06 3.27490
1.09700E+06 2.37090
1.09730E+06 2.08779
1.09800E+06 1.91039
1.09850E+06 2.68570
1.09900E+06 2.00899
1.09920E+06 1.73489
1.10000E+06 1.23669
1.10080E+06 1.12373
1.10100E+06 1.12378
1.10160E+06 1.27259
1.10200E+06 2.69559
1.10210E+06 3.05049
1.10230E+06 3.48279
1.10300E+06 2.53089
1.10340E+06 1.98769
1.10400E+06 1.68569
1.10430E+06 1.53999
1.10500E+06 1.48629
1.10520E+06 1.46809
1.10590E+06 2.32159
1.10600E+06 2.19500
1.10660E+06 1.44589
1.10700E+06 1.32119
1.10750E+06 1.17169
1.10800E+06 1.12551
1.10860E+06 1.12566
1.10900E+06 1.12576
1.10940E+06 1.20049
1.10990E+06 2.72169
1.11000E+06 2.85730
1.11020E+06 3.12180
1.11070E+06 2.01299
1.11100E+06 1.28019
1.11150E+06 1.12638
1.11200E+06 1.12650
1.11210E+06 1.12653
1.11300E+06 1.24589
1.11310E+06 1.29449
1.11400E+06 3.74709
1.11450E+06 5.10149
1.11490E+06 4.69319
1.11500E+06 4.38940
1.11580E+06 1.90849
1.11600E+06 1.76569
1.11610E+06 1.69229
1.11640E+06 1.41729
1.11700E+06 1.21939
1.11730E+06 1.12829
1.11800E+06 1.12799
1.11840E+06 1.12809
1.11890E+06 1.12821
1.11900E+06 1.46029
1.11970E+06 4.20619
1.12000E+06 4.60560
1.12010E+06 4.73329
1.12100E+06 4.86979
1.12140E+06 4.93029
1.12200E+06 4.56209
1.12270E+06 4.10930
1.12300E+06 4.23909
1.12390E+06 4.61109
1.12400E+06 4.56270
1.12480E+06 4.12030
1.12500E+06 3.83240
1.12600E+06 2.33589
1.12680E+06 1.78739
1.12700E+06 1.77579
1.12760E+06 1.77579
1.12800E+06 2.79840
1.12830E+06 3.56679
1.12870E+06 4.02389
1.12900E+06 3.54080
1.12910E+06 3.37629
1.12960E+06 2.15100
1.13000E+06 2.02219
1.13060E+06 1.72960
1.13100E+06 1.70230
1.13170E+06 1.64849
1.13200E+06 1.82550
1.13230E+06 1.99519
1.13300E+06 1.68380
1.13320E+06 1.60219
1.13390E+06 1.48770
1.13400E+06 1.51439
1.13500E+06 1.82749
1.13580E+06 2.91969
1.13600E+06 3.49559
1.13640E+06 4.65909
1.13680E+06 4.99779
1.13700E+06 4.79339
1.13710E+06 4.69390
1.13800E+06 3.44410
1.13810E+06 3.30369
1.13840E+06 2.79810
1.13900E+06 2.53900
1.14000E+06 2.07650
1.14010E+06 2.02979
1.14100E+06 1.72770
1.14150E+06 1.57249
1.14200E+06 1.56570
1.14240E+06 1.57720
1.14300E+06 2.24780
1.14340E+06 2.69250
1.14400E+06 2.94420
1.14430E+06 3.06000
1.14490E+06 4.28480
1.14500E+06 4.32099
1.14530E+06 4.40760
1.14560E+06 4.03569
1.14600E+06 3.23309
1.14620E+06 2.82669
1.14660E+06 1.89540
1.14700E+06 1.63180
1.14740E+06 1.36870
1.14760E+06 1.29750
1.14800E+06 1.29500
1.14820E+06 1.29440
1.14890E+06 2.84700
1.14900E+06 2.71240
1.14970E+06 1.78830
1.15000E+06 2.48599
1.15040E+06 3.42089
1.15100E+06 4.25330
1.15130E+06 4.67100
1.15200E+06 3.88800
1.15300E+06 2.76960
1.15350E+06 2.21450
1.15400E+06 1.99640
1.15500E+06 1.57000
1.15550E+06 1.54050
1.15580E+06 2.03740
1.15600E+06 1.79550
1.15630E+06 1.43720
1.15700E+06 1.24630
1.15720E+06 1.19610
1.15770E+06 1.18600
1.15800E+06 1.22420
1.15850E+06 2.09920
1.15900E+06 2.46159
1.15910E+06 2.52820
1.16000E+06 1.86150
1.16010E+06 1.78966
1.16050E+06 1.50230
1.16100E+06 1.42880
1.16120E+06 1.40210
1.16180E+06 1.51380
1.16200E+06 1.83530
1.16220E+06 2.15340
1.16290E+06 1.46460
1.16300E+06 1.43710
1.16380E+06 1.21530
1.16400E+06 1.22610
1.16460E+06 1.27710
1.16500E+06 2.14250
1.16520E+06 2.57729
1.16580E+06 2.12580
1.16600E+06 1.74550
1.16630E+06 1.17960
1.16670E+06 1.14127
1.16700E+06 1.14140
1.16810E+06 1.14187
1.16860E+06 2.54360
1.16900E+06 2.94970
1.16920E+06 3.15689
1.17000E+06 2.53790
1.17020E+06 2.37959
1.17100E+06 2.32130
1.17120E+06 2.30119
1.17180E+06 3.26349
1.17200E+06 3.19030
1.17240E+06 3.03320
1.17300E+06 2.10890
1.17310E+06 1.95530
1.17400E+06 1.74230
1.17440E+06 1.61780
1.17500E+06 1.54450
1.17560E+06 1.48370
1.17600E+06 1.47470
1.17700E+06 1.46420
1.17770E+06 2.00120
1.17800E+06 2.78909
1.17840E+06 3.84139
1.17900E+06 3.95259
1.17920E+06 3.98360
1.17960E+06 4.67240
1.18000E+06 4.36109
1.18020E+06 4.20170
1.18100E+06 2.36339
1.18170E+06 2.27119
1.18200E+06 2.46919
1.18220E+06 2.59440
1.18240E+06 3.25260
1.18290E+06 3.61680
1.18300E+06 3.51109
1.18380E+06 2.63830
1.18400E+06 2.61229
1.18500E+06 2.48450
1.18600E+06 3.04930
1.18630E+06 3.22069
1.18700E+06 3.25660
1.18800E+06 3.30070
1.18820E+06 3.30709
1.18900E+06 3.74060
1.19000E+06 1.92230
1.19010E+06 1.74070
1.19100E+06 1.44770
1.19180E+06 1.18290
1.19200E+06 1.15950
1.19300E+06 1.15259
1.19600E+06 1.15388
1.19630E+06 1.15401
1.19680E+06 1.21920
1.19700E+06 1.73710
1.19760E+06 3.28560
1.19800E+06 4.03369
1.19810E+06 4.21699
1.19870E+06 3.80299
1.19900E+06 3.02179
1.19950E+06 1.71740
1.20000E+06 1.43860
1.20050E+06 1.21420
1.20090E+06 1.15730
1.20100E+06 1.20200
1.20130E+06 1.32400
1.20160E+06 2.01400
1.20200E+06 2.18309
1.20210E+06 2.22540
1.20280E+06 1.86390
1.20300E+06 1.84110
1.20360E+06 1.80000
1.20400E+06 2.01080
1.20450E+06 2.29340
1.20500E+06 4.91269
1.20550E+06 6.15150
1.20600E+06 4.90750
1.20680E+06 2.90990
1.20700E+06 2.85260
1.20750E+06 2.71540
1.20800E+06 2.80440
1.20840E+06 2.87290
1.20880E+06 4.20580
1.20900E+06 4.50230
1.20930E+06 4.93260
1.20970E+06 4.25900
1.21000E+06 3.42010
1.21050E+06 2.01430
1.21100E+06 1.64200
1.21110E+06 1.56700
1.21160E+06 1.43710
1.21200E+06 1.46680
1.21220E+06 1.48180
1.21270E+06 2.14010
1.21300E+06 2.42660
1.21360E+06 2.03160
1.21390E+06 1.64330
1.21400E+06 1.62040
1.21490E+06 1.42430
1.21500E+06 1.48020
1.21530E+06 1.65080
1.21560E+06 2.30330
1.21590E+06 2.63590
1.21600E+06 2.51380
1.21660E+06 1.79200
1.21700E+06 1.45940
1.21740E+06 1.16310
1.21800E+06 1.16335
1.22030E+06 1.16434
1.22100E+06 1.33760
1.22130E+06 1.48760
1.22170E+06 3.03849
1.22200E+06 3.92239
1.22250E+06 3.15930
1.22300E+06 3.14859
1.22310E+06 3.14560
1.22370E+06 4.39129
1.22400E+06 4.39609
1.22460E+06 4.40939
1.22500E+06 4.72239
1.22550E+06 5.10700
1.22600E+06 6.21409
1.22650E+06 7.28330
1.22700E+06 8.08120
1.22800E+06 5.27860
1.22870E+06 3.29840
1.22900E+06 2.98570
1.22970E+06 2.27290
1.23000E+06 2.15390
1.23040E+06 2.00970
1.23080E+06 1.93680
1.23100E+06 2.04140
1.23130E+06 2.19770
1.23160E+06 4.66550
1.23190E+06 5.59189
1.23200E+06 5.43940
1.23280E+06 4.22089
1.23300E+06 4.15650
1.23400E+06 3.87010
1.23460E+06 3.69260
1.23500E+06 3.34710
1.23570E+06 2.73810
1.23600E+06 2.62630
1.23700E+06 2.26120
1.23790E+06 1.78590
1.23800E+06 1.77140
1.23870E+06 1.66470
1.23900E+06 1.68050
1.23940E+06 1.69410
1.23990E+06 2.43630
1.24000E+06 2.76689
1.24030E+06 3.75640
1.24080E+06 2.52240
1.24100E+06 2.50879
1.24180E+06 2.45870
1.24200E+06 2.85989
1.24230E+06 3.45979
1.24280E+06 2.96020
1.24300E+06 2.54959
1.24350E+06 1.53360
1.24390E+06 1.40030
1.24400E+06 1.40020
1.24480E+06 1.39380
1.24500E+06 1.44410
1.24540E+06 1.53990
1.24570E+06 2.38490
1.24600E+06 1.77080
1.24610E+06 1.56720
1.24650E+06 1.37630
1.24700E+06 1.38970
1.24710E+06 1.39450
1.24760E+06 1.73190
1.24800E+06 2.46330
1.24810E+06 2.64520
1.24870E+06 2.60050
1.24900E+06 2.29070
1.24910E+06 2.18700
1.25000E+06 2.00550
1.25040E+06 1.92080
1.25100E+06 1.89620
1.25120E+06 1.88720
1.25200E+06 3.84580
1.25270E+06 5.54569
1.25300E+06 5.14439
1.25360E+06 4.35160
1.25400E+06 4.24379
1.25500E+06 3.97319
1.25510E+06 3.93910
1.25590E+06 4.00830
1.25600E+06 4.19989
1.25660E+06 5.35600
1.25700E+06 5.12439
1.25720E+06 4.99820
1.25800E+06 3.93489
1.25870E+06 2.99950
1.25900E+06 2.98360
1.26000E+06 2.94790
1.26010E+06 2.94809
1.26100E+06 2.37320
1.26200E+06 1.73310
1.26230E+06 1.54720
1.26290E+06 1.47540
1.26300E+06 1.49340
1.26360E+06 1.62210
1.26400E+06 2.48070
1.26430E+06 3.56660
1.26470E+06 4.29550
1.26500E+06 3.94430
1.26600E+06 2.76790
1.26610E+06 2.64560
1.26700E+06 2.89860
1.26770E+06 3.07789
1.26800E+06 3.08630
1.26900E+06 3.08310
1.27000E+06 3.07700
1.27100E+06 3.03679
1.27200E+06 2.98449
1.27250E+06 2.97439
1.27300E+06 3.07049
1.27400E+06 3.29839
1.27500E+06 3.52529
1.27530E+06 3.59749
1.27600E+06 4.94279
1.27630E+06 5.51969
1.27660E+06 7.12730
1.27700E+06 6.53270
1.27800E+06 5.00070
1.27900E+06 3.44530
1.28000E+06 3.13540
1.28040E+06 3.01180
1.28100E+06 2.99190
1.28120E+06 2.97730
1.28180E+06 3.77020
1.28200E+06 3.65280
1.28230E+06 3.46910
1.28290E+06 2.38329
1.28300E+06 2.34140
1.28380E+06 2.03670
1.28400E+06 2.03600
1.28450E+06 2.03090
1.28500E+06 2.71290
1.28530E+06 2.68510
1.28580E+06 1.93180
1.28600E+06 1.83660
1.28660E+06 1.55620
1.28700E+06 1.50610
1.28800E+06 1.39750
1.28810E+06 1.38990
1.28860E+06 1.19300
1.28900E+06 1.18647
1.28910E+06 1.18649
1.28960E+06 1.19680
1.29000E+06 1.41640
1.29020E+06 1.53170
1.29070E+06 3.58619
1.29100E+06 4.22949
1.29150E+06 5.29399
1.29200E+06 5.21119
1.29300E+06 5.03879
1.29330E+06 4.98559
1.29400E+06 4.62909
1.29500E+06 4.09700
1.29570E+06 3.24520
1.29600E+06 3.22670
1.29680E+06 3.16179
1.29700E+06 2.97080
1.29770E+06 2.28920
1.29800E+06 2.26540
1.29850E+06 2.23700
1.29900E+06 2.65210
1.29960E+06 3.15019
1.30000E+06 3.12390
1.30060E+06 3.09839
1.30100E+06 2.59760
1.30150E+06 2.35930
1.30190E+06 2.43069
1.30230E+06 3.46960
1.30410E+06 2.53580
1.30510E+06 1.87500
1.30780E+06 1.30050
1.30840E+06 1.25350
1.30870E+06 1.26660
1.30920E+06 1.42750
1.31060E+06 1.51210
1.31100E+06 1.55130
1.31410E+06 2.11460
1.31640E+06 2.40680
1.31700E+06 3.47490
1.31720E+06 3.84640
1.31810E+06 5.32849
1.31960E+06 4.37409
1.32020E+06 3.91050
1.32100E+06 2.98720
1.32190E+06 2.72139
1.32280E+06 3.18860
1.32440E+06 4.16590
1.32570E+06 3.57789
1.32610E+06 3.26820
1.32770E+06 3.23440
1.32820E+06 3.74520
1.33000E+06 5.83049
1.33010E+06 5.70820
1.33050E+06 5.18860
1.33160E+06 2.76520
1.33190E+06 2.07210
1.33240E+06 1.98440
1.33310E+06 2.30510
1.33320E+06 2.35870
1.33420E+06 3.42350
1.33540E+06 3.68360
1.33600E+06 4.32380
1.33670E+06 5.15390
1.33750E+06 4.29650
1.33860E+06 2.96780
1.33900E+06 3.18640
1.33950E+06 3.42360
1.34070E+06 3.44640
1.34120E+06 3.05289
1.34160E+06 2.79470
1.34320E+06 2.72039
1.34340E+06 2.62570
1.34430E+06 2.20700
1.34490E+06 2.12640
1.34550E+06 2.09240
1.34620E+06 3.04600
1.34640E+06 3.08610
1.34680E+06 3.19260
1.34770E+06 2.86040
1.34790E+06 3.08580
1.34940E+06 4.43930
1.34980E+06 4.77449
1.35070E+06 3.34550
1.35090E+06 3.11190
1.35180E+06 2.04170
1.35290E+06 1.84320
1.35330E+06 1.83790
1.35370E+06 1.90850
1.35470E+06 3.37340
1.35670E+06 3.41190
1.35690E+06 3.70109
1.35720E+06 4.09080
1.35780E+06 4.27610
1.35860E+06 2.75550
1.35950E+06 2.36350
1.36050E+06 2.98230
1.36090E+06 3.38860
1.36170E+06 3.83379
1.36340E+06 1.87350
1.36450E+06 1.73470
1.36470E+06 1.71900
1.36620E+06 1.70320
1.36660E+06 2.32060
1.36710E+06 2.69890
1.36760E+06 1.95330
1.36830E+06 1.86870
1.36870E+06 2.90690
1.36910E+06 3.25790
1.37060E+06 1.54450
1.37070E+06 1.53240
1.37180E+06 1.24430
1.37230E+06 1.24140
1.37290E+06 1.43130
1.37320E+06 2.19880
1.37330E+06 2.47630
1.37380E+06 2.56950
1.37460E+06 1.86910
1.37540E+06 1.76350
1.37680E+06 2.42450
1.37740E+06 2.64880
1.37810E+06 2.62460
1.37900E+06 1.97610
1.37990E+06 1.96710
1.38050E+06 2.25620
1.38140E+06 2.40710
1.38150E+06 2.60469
1.38270E+06 4.93770
1.38300E+06 5.34499
1.38320E+06 5.63840
1.38450E+06 4.25140
1.38460E+06 4.27420
1.38530E+06 4.30669
1.38590E+06 5.67620
1.38630E+06 6.23059
1.38910E+06 2.75829
1.38930E+06 2.89400
1.38970E+06 3.18240
1.39040E+06 2.09950
1.39080E+06 2.13550
1.39140E+06 2.99750
1.39240E+06 1.90020
1.39640E+06 1.41600
1.39740E+06 1.42270
1.39980E+06 1.84490
1.40000E+06 2.00120
1.40020E+06 2.15230
1.40030E+06 3.78390
1.40150E+06 5.22779
1.40190E+06 4.64450
1.40280E+06 3.23070
1.40350E+06 2.60590
1.40430E+06 1.68510
1.40510E+06 1.39860
1.40520E+06 1.37630
1.40610E+06 1.31700
1.40670E+06 1.35850
1.40690E+06 1.38570
1.40760E+06 2.09200
1.40800E+06 2.33850
1.40860E+06 1.59740
1.40940E+06 1.46910
1.40990E+06 1.55090
1.41040E+06 1.64610
1.41140E+06 3.14469
1.41150E+06 3.22720
1.41220E+06 3.88210
1.41310E+06 4.30780
1.41360E+06 4.51540
1.41470E+06 3.10869
1.41500E+06 2.67610
1.41620E+06 2.47840
1.41720E+06 2.80370
1.41840E+06 1.95970
1.41940E+06 1.93350
1.42000E+06 3.74120
1.42070E+06 4.80810
1.42210E+06 3.12720
1.42440E+06 2.23030
1.42570E+06 1.74470
1.42670E+06 1.73280
1.42750E+06 2.18950
1.42760E+06 2.34730
1.42830E+06 3.40040
1.42890E+06 3.81030
1.42930E+06 2.95360
1.42970E+06 2.11600
1.43070E+06 1.80680
1.43250E+06 2.03090
1.43260E+06 2.10370
1.43300E+06 2.41580
1.43330E+06 2.65770
1.43420E+06 3.13510
1.43500E+06 4.19140
1.43550E+06 3.90020
1.43580E+06 3.56600
1.43680E+06 2.24580
1.43760E+06 2.14480
1.43840E+06 3.27450
1.43910E+06 3.29610
1.43930E+06 3.31630
1.44030E+06 2.21710
1.44080E+06 2.14940
1.44100E+06 2.12860
1.44170E+06 4.36580
1.44210E+06 5.24650
1.44250E+06 4.85400
1.44410E+06 3.35859
1.44500E+06 3.45410
1.44580E+06 4.35550
1.44650E+06 5.19170
1.44740E+06 4.84780
1.44750E+06 4.79800
1.44910E+06 3.01800
1.44980E+06 3.02540
1.45120E+06 4.16010
1.45190E+06 4.06600
1.45250E+06 3.44760
1.45290E+06 3.06440
1.45750E+06 2.91570
1.45790E+06 2.87550
1.45920E+06 5.26020
1.45960E+06 6.01850
1.46060E+06 6.41550
1.46090E+06 6.08030
1.46150E+06 5.43580
1.46280E+06 5.61890
1.46420E+06 4.18060
1.46480E+06 3.54390
1.46540E+06 3.57920
1.46630E+06 4.08860
1.46760E+06 5.63330
1.46860E+06 5.40110
1.46930E+06 4.78750
1.47150E+06 2.63010
1.47410E+06 2.11230
1.47450E+06 2.08760
1.47660E+06 2.28490
1.47790E+06 2.07500
1.47880E+06 1.89820
1.48000E+06 1.87710
1.48100E+06 2.19670
1.48160E+06 3.07820
1.48260E+06 2.17840
1.48310E+06 2.17210
1.48440E+06 2.12990
1.48530E+06 3.02660
1.48620E+06 3.57370
1.48650E+06 3.47930
1.48750E+06 3.19310
1.48830E+06 2.79750
1.48970E+06 2.00260
1.49000E+06 1.94050
1.49170E+06 1.68690
1.49260E+06 3.55320
1.49320E+06 3.57310
1.49490E+06 2.10600
1.49520E+06 2.11940
1.49590E+06 2.10030
1.49700E+06 1.66250
1.49790E+06 1.27300
1.49890E+06 1.23673
1.49990E+06 1.23697
1.50000E+06 1.23699
1.50050E+06 1.23709
1.50080E+06 2.23490
1.50120E+06 2.65131
1.50190E+06 1.53300
1.50300E+06 1.45950
1.50400E+06 1.57310
1.50550E+06 1.69340
1.50580E+06 2.02390
1.50660E+06 3.01040
1.50720E+06 3.43090
1.50760E+06 2.91890
1.50770E+06 2.78990
1.50960E+06 3.77290
1.51070E+06 4.18360
1.51170E+06 3.82040
1.51290E+06 2.31060
1.51320E+06 1.86430
1.51450E+06 1.77910
1.51470E+06 1.89510
1.51630E+06 3.00170
1.51790E+06 2.99250
1.51830E+06 2.73240
1.51990E+06 1.65520
1.52130E+06 1.56960
1.52180E+06 3.67740
1.52210E+06 4.98600
1.52280E+06 5.77750
1.52360E+06 5.41790
1.52720E+06 3.60000
1.52850E+06 2.78700
1.53050E+06 3.80020
1.53090E+06 3.78070
1.53330E+06 3.87270
1.53530E+06 3.35910
1.53790E+06 3.56050
1.53940E+06 2.75520
1.54000E+06 3.34330
1.54130E+06 4.73700
1.54210E+06 5.21160
1.54360E+06 4.62220
1.54380E+06 4.50930
1.54470E+06 4.97650
1.54730E+06 4.99030
1.54740E+06 5.00240
1.54950E+06 3.47240
1.55000E+06 3.47520
1.55310E+06 3.49100
1.55430E+06 4.41750
1.55530E+06 4.75011
1.55660E+06 4.68920
1.55730E+06 4.60490
1.55840E+06 4.21261
1.56190E+06 3.40170
1.56500E+06 5.00250
1.56590E+06 4.50610
1.56890E+06 2.09100
1.57060E+06 1.72220
1.57180E+06 1.82330
1.57370E+06 2.08670
1.57480E+06 2.67370
1.57570E+06 3.03681
1.57710E+06 1.66190
1.57840E+06 1.60600
1.57910E+06 2.17260
1.58080E+06 3.64980
1.58100E+06 3.55590
1.58240E+06 2.86020
1.58290E+06 2.19230
1.58300E+06 2.05620
1.58410E+06 1.73280
1.58480E+06 2.00700
1.58520E+06 2.15750
1.58650E+06 3.35540
1.58860E+06 3.25640
1.58910E+06 3.25970
1.59060E+06 3.94801
1.59130E+06 4.27110
1.59280E+06 3.49170
1.59440E+06 4.09960
1.59460E+06 4.16940
1.59700E+06 3.18360
1.59950E+06 4.23940
1.60000E+06 3.95321
1.60060E+06 3.60820
1.60210E+06 2.54780
1.60240E+06 2.31321
1.60320E+06 1.96210
1.60410E+06 1.97920
1.60440E+06 2.00970
1.60600E+06 2.47530
1.60690E+06 2.78260
1.60810E+06 3.12000
1.60960E+06 2.58200
1.61190E+06 3.62790
1.61310E+06 4.30170
1.61380E+06 4.46970
1.61430E+06 4.46830
1.61940E+06 2.98300
1.61970E+06 3.03790
1.62170E+06 3.52850
1.62310E+06 3.74430
1.62440E+06 3.06870
1.62570E+06 2.96880
1.62690E+06 3.10270
1.62770E+06 3.08280
1.62820E+06 3.04381
1.62940E+06 2.40000
1.62970E+06 2.41480
1.63080E+06 2.52450
1.63200E+06 2.78580
1.63360E+06 3.41780
1.63460E+06 3.77840
1.63560E+06 3.53050
1.63590E+06 3.43760
1.63710E+06 2.67530
1.63870E+06 1.81910
1.63970E+06 1.77610
1.64140E+06 1.77550
1.64170E+06 1.72950
1.64320E+06 1.55050
1.64410E+06 1.63280
1.64470E+06 1.58500
1.64570E+06 2.07510
1.64770E+06 3.26170
1.64870E+06 3.74841
1.65000E+06 3.55470
1.65180E+06 2.79481
1.65390E+06 2.16410
1.65520E+06 2.67030
1.65590E+06 3.29830
1.65650E+06 3.73831
1.65740E+06 3.82770
1.65790E+06 3.87840
1.65910E+06 3.61730
1.66020E+06 1.86690
1.66150E+06 1.74970
1.66200E+06 1.83100
1.66260E+06 1.97490
1.66310E+06 2.53460
1.66350E+06 2.05710
1.66400E+06 2.02410
1.66470E+06 2.06600
1.66610E+06 3.32680
1.66700E+06 4.15860
1.66830E+06 3.84701
1.66960E+06 3.90480
1.67220E+06 4.25691
1.67360E+06 4.84541
1.67440E+06 4.51531
1.67850E+06 2.61091
1.68010E+06 2.25220
1.68090E+06 1.81030
1.68300E+06 1.78860
1.68370E+06 1.61540
1.68480E+06 1.74010
1.68500E+06 1.78020
1.68690E+06 2.84710
1.68730E+06 3.04110
1.68820E+06 2.97730
1.68930E+06 2.40401
1.69090E+06 2.49891
1.69150E+06 2.76390
1.69320E+06 2.09440
1.69410E+06 1.81470
1.69490E+06 2.04280
1.69530E+06 2.30240
1.69740E+06 3.48950
1.69760E+06 3.60890
1.69950E+06 3.59841
1.70000E+06 3.50720
1.70160E+06 3.24930
1.70170E+06 3.24040
1.70440E+06 3.19020
1.70590E+06 2.89121
1.70980E+06 3.07841
1.71190E+06 2.01170
1.71400E+06 1.56190
1.71540E+06 1.73370
1.71660E+06 2.23500
1.71780E+06 2.77500
1.71880E+06 2.94670
1.72060E+06 3.17480
1.72250E+06 1.66300
1.72420E+06 1.48600
1.72540E+06 1.50610
1.72630E+06 1.83280
1.72670E+06 2.00170
1.72930E+06 2.70331
1.73090E+06 2.22610
1.73180E+06 2.22960
1.73210E+06 2.20890
1.73270E+06 1.88400
1.73400E+06 2.36641
1.73610E+06 3.26250
1.73750E+06 3.50060
1.73950E+06 2.01380
1.73980E+06 2.02180
1.74110E+06 2.19620
1.74270E+06 1.90640
1.74280E+06 1.88430
1.74350E+06 1.63710
1.74600E+06 2.00540
1.74710E+06 2.81110
1.74940E+06 4.56120
1.75000E+06 4.99783
1.75010E+06 5.07060
1.75160E+06 5.21030
1.75300E+06 3.99070
1.75380E+06 3.74340
1.75580E+06 3.25390
1.75720E+06 2.00530
1.75830E+06 2.03300
1.75850E+06 2.04880
1.75920E+06 1.80140
1.75980E+06 2.42580
1.76150E+06 3.12710
1.76270E+06 3.40570
1.76290E+06 3.43110
1.76440E+06 3.31971
1.76560E+06 2.17320
1.76720E+06 2.63011
1.76840E+06 2.13290
1.76950E+06 2.20540
1.77160E+06 2.52311
1.77170E+06 2.58600
1.77300E+06 3.35601
1.77400E+06 3.27731
1.77440E+06 3.25451
1.77590E+06 2.67590
1.77850E+06 2.81140
1.77880E+06 2.83011
1.78020E+06 3.54991
1.78080E+06 3.64371
1.78170E+06 3.69770
1.78310E+06 3.65040
1.78530E+06 2.17050
1.78600E+06 1.72810
1.78680E+06 2.22200
1.78810E+06 2.79420
1.78990E+06 2.11810
1.79130E+06 2.46040
1.79250E+06 2.06610
1.79450E+06 2.08900
1.79680E+06 2.17840
1.79910E+06 2.35130
1.80000E+06 2.39530
1.80140E+06 3.06690
1.80240E+06 3.59600
1.80480E+06 3.32970
1.80840E+06 2.18560
1.80980E+06 1.79290
1.81070E+06 1.77610
1.81110E+06 1.55060
1.81230E+06 2.07921
1.81430E+06 1.54600
1.81540E+06 1.58670
1.81580E+06 1.60680
1.81690E+06 1.91010
1.81840E+06 1.81900
1.82010E+06 2.21631
1.82160E+06 3.03060
1.82240E+06 3.02270
1.82480E+06 2.79670
1.82760E+06 2.71320
1.82950E+06 3.17441
1.83060E+06 3.36780
1.83210E+06 2.87541
1.83360E+06 3.09130
1.83430E+06 2.91471
1.83820E+06 2.19791
1.83900E+06 2.32940
1.84140E+06 2.83260
1.84380E+06 3.06020
1.84740E+06 3.40901
1.84890E+06 3.80980
1.85000E+06 3.42181
1.85040E+06 3.28271
1.85100E+06 3.22781
1.85200E+06 3.07951
1.85350E+06 3.13330
1.85510E+06 3.44050
1.85590E+06 3.40850
1.85660E+06 3.36181
1.85830E+06 2.26611
1.85880E+06 1.98371
1.86010E+06 1.98831
1.86070E+06 2.09691
1.86440E+06 2.90261
1.86600E+06 2.47351
1.86800E+06 2.85801
1.86900E+06 3.00701
1.87050E+06 3.86530
1.87060E+06 3.93371
1.87220E+06 3.99541
1.87370E+06 3.88580
1.87540E+06 4.17661
1.87840E+06 4.19931
1.88000E+06 4.12041
1.88030E+06 3.94660
1.88280E+06 2.32621
1.88520E+06 3.01721
1.88630E+06 3.46720
1.88810E+06 1.90711
1.88960E+06 1.65871
1.89020E+06 1.66961
1.89110E+06 1.70501
1.89320E+06 1.36401
1.89520E+06 1.40871
1.89610E+06 1.45641
1.89690E+06 1.69911
1.89770E+06 1.68961
1.89820E+06 1.71081
1.89920E+06 2.08641
1.90020E+06 2.71330
1.90080E+06 3.05130
1.90230E+06 3.27641
1.90270E+06 3.20491
1.90520E+06 2.48800
1.90650E+06 2.20181
1.90800E+06 2.11541
1.90940E+06 2.23061
1.91030E+06 2.75451
1.91190E+06 3.74561
1.91350E+06 4.22061
1.91510E+06 3.16291
1.91530E+06 3.16571
1.91680E+06 3.25910
1.91790E+06 3.59601
1.91840E+06 3.69480
1.92000E+06 3.29580
1.92040E+06 3.28520
1.92160E+06 3.20400
1.92300E+06 3.33400
1.92330E+06 3.38521
1.92490E+06 4.03361
1.92550E+06 4.15211
1.92650E+06 4.40111
1.92820E+06 4.28490
1.93140E+06 3.57321
1.93320E+06 4.56811
1.93470E+06 5.22401
1.93580E+06 5.01631
1.93640E+06 4.93511
1.93800E+06 4.92791
1.93840E+06 5.06161
1.93970E+06 5.46341
1.94100E+06 5.44431
1.94130E+06 5.42591
1.94280E+06 4.45950
1.94282E+06 4.44597
1.94350E+06 4.00850
1.94650E+06 2.17251
1.94750E+06 1.81351
1.94870E+06 1.80261
1.94910E+06 1.82871
1.95280E+06 2.86511
1.95400E+06 3.04711
1.95460E+06 3.11291
1.95660E+06 2.74601
1.95780E+06 2.57691
1.95920E+06 2.71541
1.95950E+06 2.72350
1.96380E+06 2.20821
1.96450E+06 2.15991
1.96620E+06 1.96001
1.96850E+06 2.03231
1.96860E+06 2.05120
1.96990E+06 2.69820
1.97240E+06 3.03520
1.97300E+06 3.04700
1.97470E+06 3.98741
1.97790E+06 2.37971
1.97920E+06 2.10651
1.98040E+06 2.30850
1.98080E+06 2.41990
1.98220E+06 3.30000
1.98330E+06 3.37081
1.98570E+06 3.20151
1.98840E+06 2.81120
1.99010E+06 3.39201
1.99110E+06 3.18911
1.99190E+06 3.01311
1.99360E+06 3.66890
1.99650E+06 3.14261
1.99700E+06 3.06910
1.99870E+06 2.59371
1.99920E+06 2.61820
2.00000E+06 2.68040
2.00050E+06 2.72250
2.00200E+06 3.34870
2.00370E+06 3.44291
2.00730E+06 3.23140
2.00910E+06 3.15000
2.01010E+06 2.91471
2.01070E+06 2.72900
2.01090E+06 2.66520
2.01440E+06 3.92710
2.01610E+06 3.65970
2.01790E+06 2.96050
2.01830E+06 2.89230
2.01960E+06 2.71200
2.02100E+06 2.83921
2.02140E+06 2.89230
2.02310E+06 3.83630
2.02380E+06 3.92090
2.02490E+06 3.99870
2.02650E+06 3.79520
2.03020E+06 3.39591
2.03200E+06 3.42961
2.03340E+06 4.06780
2.03480E+06 4.15010
2.03910E+06 4.50000
2.04040E+06 4.47570
2.04260E+06 4.28070
2.04320E+06 4.02300
2.04440E+06 3.45160
2.04600E+06 2.82630
2.04870E+06 1.85370
2.05160E+06 1.74460
2.05720E+06 3.66011
2.05880E+06 4.07060
2.06240E+06 3.50240
2.06780E+06 3.34080
2.06860E+06 3.47980
2.07140E+06 3.97610
2.07150E+06 3.99820
2.07430E+06 3.46420
2.07690E+06 3.02200
2.07720E+06 3.07750
2.08060E+06 3.57570
2.08240E+06 4.04680
2.08290E+06 3.98830
2.08580E+06 3.47180
2.09160E+06 2.89510
2.09380E+06 2.60800
2.09450E+06 2.56370
2.09580E+06 2.52120
2.09720E+06 2.84280
2.09740E+06 2.80110
2.09880E+06 2.54290
2.10070E+06 2.88950
2.10320E+06 3.76890
2.10460E+06 4.10830
2.10650E+06 3.18560
2.10910E+06 3.10981
2.11030E+06 3.23670
2.11210E+06 2.90500
2.11400E+06 3.04350
2.11490E+06 3.42350
2.11590E+06 3.81980
2.11780E+06 3.95841
2.11960E+06 3.12360
2.12200E+06 2.91830
2.12260E+06 2.86731
2.12610E+06 2.56890
2.12800E+06 2.53420
2.12970E+06 2.81450
2.13110E+06 3.07150
2.13480E+06 3.35129
2.13570E+06 3.27970
2.13870E+06 3.13230
2.14050E+06 3.47080
2.14250E+06 2.82870
2.14440E+06 2.80080
2.14630E+06 3.29340
2.14820E+06 3.04720
2.15000E+06 3.30660
2.15010E+06 3.32200
2.15210E+06 3.79200
2.15380E+06 3.96100
2.15520E+06 3.90110
2.15590E+06 3.87060
2.16120E+06 2.02430
2.16250E+06 1.73400
2.16380E+06 2.00270
2.16750E+06 3.45019
2.16950E+06 3.68440
2.17150E+06 3.64070
2.17580E+06 2.73110
2.17750E+06 2.57899
2.17890E+06 2.58790
2.18040E+06 2.86940
2.18530E+06 3.46740
2.19040E+06 2.58780
2.19250E+06 2.60490
2.19330E+06 3.01260
2.19720E+06 3.41110
2.20000E+06 3.20370
2.20110E+06 3.12220
2.20310E+06 3.21200
2.20710E+06 4.65869
2.21110E+06 3.05189
2.21310E+06 2.82610
2.21520E+06 3.01780
2.21920E+06 2.76810
2.22530E+06 3.07160
2.22750E+06 3.62560
2.23140E+06 3.49350
2.23330E+06 2.15570
2.23500E+06 2.06060
2.23540E+06 2.03730
2.23960E+06 2.78780
2.24150E+06 2.61880
2.24330E+06 1.93030
2.24570E+06 1.83720
2.24690E+06 2.08460
2.24780E+06 2.27010
2.24970E+06 2.45590
2.25000E+06 2.39814
2.25240E+06 1.93610
2.25500E+06 1.84950
2.25600E+06 2.11280
2.26220E+06 2.98980
2.26430E+06 3.71420
2.26640E+06 3.72479
2.26850E+06 3.42180
2.27060E+06 3.98560
2.27270E+06 4.19209
2.27480E+06 3.10740
2.27900E+06 3.23490
2.28170E+06 2.67569
2.28530E+06 2.66990
2.28950E+06 3.57219
2.29380E+06 3.41790
2.29700E+06 1.98820
2.29830E+06 1.97060
2.30120E+06 3.00510
2.30460E+06 3.30550
2.30720E+06 3.42110
2.31080E+06 3.19570
2.31290E+06 3.35160
2.31500E+06 3.83170
2.31730E+06 3.64630
2.32100E+06 2.25430
2.32160E+06 2.07480
2.32590E+06 4.32060
2.32930E+06 3.73600
2.33680E+06 3.40530
2.33900E+06 3.04800
2.34340E+06 3.46000
2.34760E+06 3.53270
2.35190E+06 2.14990
2.35580E+06 1.97070
2.35870E+06 2.70301
2.36200E+06 2.13280
2.36320E+06 2.27840
2.36570E+06 2.87670
2.36750E+06 2.67890
2.37000E+06 2.50650
2.37040E+06 2.47920
2.37560E+06 2.65261
2.37660E+06 3.06210
2.37720E+06 3.03851
2.37890E+06 2.96980
2.38110E+06 3.03030
2.38680E+06 4.98140
2.38990E+06 4.21900
2.39240E+06 2.85510
2.39500E+06 2.74530
2.39950E+06 4.32350
2.40000E+06 4.24650
2.40140E+06 4.03440
2.40370E+06 2.99040
2.40600E+06 2.76680
2.41060E+06 3.09250
2.41510E+06 4.32940
2.41890E+06 2.34630
2.42200E+06 2.25390
2.42670E+06 3.31390
2.43130E+06 2.67681
2.43590E+06 3.94861
2.43820E+06 4.02920
2.44290E+06 3.18430
2.44760E+06 4.06900
2.45230E+06 3.16530
2.45460E+06 3.22420
2.45700E+06 3.41231
2.45930E+06 4.34680
2.46000E+06 4.44011
2.46170E+06 4.66871
2.47260E+06 2.44381
2.48080E+06 4.31590
2.48550E+06 3.51730
2.48790E+06 3.67641
2.49030E+06 3.50630
2.49270E+06 3.12261
2.49510E+06 3.48260
2.49750E+06 3.57281
2.49830E+06 3.48060
2.50000E+06 3.28371
2.50470E+06 3.91981
2.51200E+06 3.15231
2.51450E+06 3.05830
2.51930E+06 4.23521
2.52180E+06 4.27890
2.52420E+06 3.60280
2.52670E+06 3.23931
2.53160E+06 3.88951
2.53410E+06 3.89980
2.53650E+06 3.41630
2.54400E+06 4.10970
2.54640E+06 5.04831
2.54890E+06 4.56880
2.55140E+06 3.80421
2.55480E+06 3.99460
2.55890E+06 4.48451
2.56640E+06 3.72970
2.56890E+06 3.57560
2.57150E+06 3.87901
2.57400E+06 4.53550
2.57650E+06 3.92491
2.57900E+06 3.94370
2.58160E+06 4.20030
2.58390E+06 4.66511
2.59440E+06 3.26100
2.60000E+06 3.02201
2.60010E+06 3.01841
2.60430E+06 3.07920
2.60740E+06 3.47781
2.61130E+06 3.31830
2.61200E+06 3.29150
2.61500E+06 3.42160
2.61740E+06 3.17010
2.62030E+06 3.47310
2.62270E+06 3.56890
2.62530E+06 3.54701
2.63340E+06 2.39430
2.64080E+06 3.58610
2.64460E+06 3.13110
2.65150E+06 2.74110
2.65420E+06 2.49410
2.65960E+06 3.52950
2.66210E+06 3.34770
2.66440E+06 3.62500
2.66990E+06 3.16590
2.67300E+06 3.16600
2.67580E+06 3.62060
2.67780E+06 3.68590
2.68410E+06 3.51670
2.68850E+06 3.49490
2.69140E+06 3.59900
2.70000E+06 3.18670
2.70140E+06 3.21860
2.70560E+06 3.31810
2.70590E+06 3.34649
2.70780E+06 3.52960
2.71240E+06 3.26120
2.71610E+06 3.27860
2.71890E+06 3.63820
2.72480E+06 3.47790
2.72960E+06 4.19720
2.73790E+06 3.30900
2.74070E+06 3.39860
2.74350E+06 3.81649
2.75000E+06 3.15918
2.75460E+06 2.69400
2.75740E+06 3.37050
2.76020E+06 3.69039
2.76580E+06 3.23810
2.76870E+06 3.90050
2.77430E+06 3.17730
2.77710E+06 3.39140
2.78000E+06 3.09700
2.78270E+06 2.92849
2.78860E+06 3.52199
2.80000E+06 2.83690
2.80290E+06 3.12380
2.80590E+06 3.01890
2.80840E+06 2.83470
2.81410E+06 2.78969
2.82020E+06 3.22540
2.82830E+06 3.04499
2.83480E+06 3.94259
2.84340E+06 3.25380
2.84920E+06 4.27870
2.85220E+06 3.90090
2.85510E+06 3.28170
2.85810E+06 3.36820
2.86130E+06 3.64239
2.86390E+06 3.63830
2.87030E+06 2.81970
2.87310E+06 2.77839
2.87900E+06 3.60459
2.88190E+06 3.28399
2.88450E+06 3.60250
2.89000E+06 3.68560
2.89390E+06 3.64129
2.90000E+06 3.18100
2.90290E+06 3.14000
2.90590E+06 3.28400
2.91200E+06 2.52119
2.91500E+06 2.79829
2.91810E+06 2.41589
2.92470E+06 3.76470
2.92840E+06 3.93000
2.93340E+06 3.71149
2.93950E+06 3.60570
2.94260E+06 3.82490
2.95000E+06 3.35799
2.95810E+06 2.82749
2.96120E+06 3.41279
2.96440E+06 3.44090
2.96550E+06 3.34730
2.97370E+06 2.64790
2.98000E+06 3.68999
2.98330E+06 2.94470
2.98870E+06 2.74119
2.99150E+06 2.75170
2.99310E+06 2.75859
2.99510E+06 2.92290
3.00000E+06 3.32599
3.00500E+06 3.73020
3.00780E+06 3.80120
3.01000E+06 3.72099
3.01160E+06 3.66420
3.01340E+06 3.51889
3.01490E+06 3.39739
3.01810E+06 3.61920
3.02130E+06 3.61509
3.02460E+06 3.21750
3.03750E+06 3.70309
3.04010E+06 3.40850
3.05040E+06 3.10350
3.05370E+06 3.31759
3.05700E+06 3.16510
3.06020E+06 3.53269
3.06350E+06 3.59010
3.06720E+06 3.53429
3.07000E+06 3.33640
3.07010E+06 3.33250
3.07340E+06 3.26879
3.08000E+06 3.72800
3.08330E+06 4.13049
3.08660E+06 3.59440
3.08990E+06 3.55459
3.09320E+06 3.63219
3.09990E+06 3.32790
3.10330E+06 3.57049
3.10660E+06 3.13989
3.11330E+06 3.32299
3.11670E+06 3.73919
3.12000E+06 3.38269
3.12340E+06 3.23150
3.13360E+06 3.70270
3.13700E+06 3.75239
3.14040E+06 3.92159
3.14720E+06 3.83799
3.15060E+06 4.10410
3.15400E+06 4.15480
3.15740E+06 3.96250
3.16090E+06 3.35030
3.16430E+06 3.22780
3.17120E+06 4.10630
3.17500E+06 3.72200
3.17630E+06 3.67650
3.17800E+06 3.61800
3.17930E+06 3.57269
3.19200E+06 3.13269
3.19550E+06 2.88150
3.19900E+06 3.37770
3.20000E+06 3.44330
3.20250E+06 3.60700
3.20600E+06 3.39539
3.20950E+06 3.78979
3.21660E+06 2.96280
3.22010E+06 2.99759
3.22370E+06 2.75300
3.23080E+06 3.58539
3.23430E+06 3.77849
3.23790E+06 2.97710
3.24140E+06 3.03120
3.24500E+06 3.59399
3.24860E+06 3.86680
3.25220E+06 3.66359
3.25940E+06 2.92199
3.26300E+06 3.24700
3.26660E+06 3.88109
3.27030E+06 3.47399
3.27360E+06 3.34240
3.27740E+06 3.33190
3.28110E+06 3.45059
3.29200E+06 4.11849
3.29560E+06 3.35660
3.29930E+06 2.83879
3.30000E+06 2.81549
3.30300E+06 2.71259
3.30660E+06 3.17330
3.31770E+06 3.51530
3.32140E+06 3.52380
3.32880E+06 2.84599
3.33250E+06 2.94900
3.33630E+06 3.19840
3.34000E+06 3.26210
3.34370E+06 3.16059
3.34750E+06 3.39030
3.35120E+06 3.47269
3.35870E+06 3.36329
3.36630E+06 3.85499
3.37760E+06 2.96480
3.39290E+06 3.90270
3.39670E+06 3.99910
3.40000E+06 3.73919
3.40440E+06 3.39180
3.40820E+06 3.77150
3.41210E+06 3.82509
3.41590E+06 3.29689
3.42800E+06 3.08290
3.43080E+06 3.16740
3.43930E+06 3.42389
3.44310E+06 3.36600
3.44700E+06 2.91010
3.44850E+06 3.02149
3.44910E+06 3.06560
3.45880E+06 3.78289
3.46670E+06 3.46420
3.47070E+06 3.46250
3.48210E+06 4.05370
3.50000E+06 3.37740
3.50600E+06 3.15150
3.50710E+06 3.11030
3.51120E+06 2.95790
3.51200E+06 2.92790
3.51460E+06 2.83240
3.52260E+06 3.46950
3.54300E+06 3.16610
3.54700E+06 3.63129
3.55110E+06 3.58259
3.56340E+06 2.74710
3.58140E+06 3.46330
3.60000E+06 3.38830
3.60370E+06 3.37010
3.61750E+06 3.59910
3.62180E+06 3.11330
3.62600E+06 3.12520
3.63020E+06 3.49090
3.63440E+06 3.16890
3.64720E+06 3.63370
3.65150E+06 3.25120
3.65570E+06 3.68910
3.66400E+06 3.90061
3.66430E+06 3.91250
3.66700E+06 3.58591
3.66860E+06 3.39290
3.66900E+06 3.41920
3.67200E+06 3.62370
3.67290E+06 3.68550
3.67720E+06 3.74050
3.68150E+06 3.42100
3.69450E+06 3.84410
3.69890E+06 3.60251
3.70000E+06 3.43881
3.70320E+06 2.96030
3.71200E+06 3.59811
3.73840E+06 3.56730
3.74280E+06 2.93131
3.74720E+06 2.89051
3.75170E+06 3.50000
3.75610E+06 3.56060
3.76060E+06 3.77440
3.76500E+06 3.50740
3.77000E+06 3.44220
3.77400E+06 3.58350
3.77850E+06 3.34651
3.78300E+06 3.38630
3.79200E+06 4.30240
3.80000E+06 4.03470
3.80100E+06 4.00240
3.81010E+06 3.13710
3.81400E+06 3.26121
3.82370E+06 3.57250
3.83000E+06 3.77470
3.83760E+06 4.17720
3.84220E+06 3.54060
3.85140E+06 3.43761
3.86530E+06 3.94791
3.87470E+06 3.52320
3.87930E+06 3.51430
3.88600E+06 3.69251
3.89340E+06 3.76771
3.89700E+06 3.65890
3.90000E+06 3.56900
3.90110E+06 3.53520
3.90280E+06 3.48330
3.91230E+06 3.43720
3.92170E+06 3.82951
3.92500E+06 3.57381
3.92650E+06 3.45520
3.92660E+06 3.45621
3.93130E+06 3.40461
3.93600E+06 3.49421
3.94080E+06 4.02471
3.94560E+06 3.71280
3.96000E+06 3.59411
4.00000E+06 3.26571
4.00870E+06 3.19341
4.01860E+06 4.03451
4.02350E+06 4.04901
4.02840E+06 3.40741
4.03830E+06 3.76471
4.04330E+06 4.29271
4.04830E+06 4.15021
4.05330E+06 3.64261
4.06330E+06 3.54151
4.07330E+06 3.98451
4.07930E+06 3.65751
4.09350E+06 3.54711
4.10000E+06 3.88260
4.10150E+06 3.95831
4.10880E+06 4.13311
4.11800E+06 3.75740
4.12200E+06 3.59391
4.12410E+06 3.50881
4.14000E+06 3.88181
4.14990E+06 3.79910
4.16540E+06 3.94550
4.17200E+06 3.59650
4.17390E+06 3.49620
4.17590E+06 3.39061
4.18630E+06 4.00310
4.18950E+06 3.70821
4.19160E+06 3.51451
4.19430E+06 3.49331
4.19680E+06 3.47380
4.20000E+06 3.64530
4.20210E+06 3.75840
4.21800E+06 2.95341
4.23390E+06 3.74260
4.24460E+06 3.55101
4.25000E+06 3.34360
4.26610E+06 4.20820
4.27150E+06 3.71541
4.27690E+06 3.94920
4.28230E+06 4.02990
4.28770E+06 3.91560
4.29320E+06 3.48200
4.29860E+06 3.44620
4.30000E+06 3.49061
4.30960E+06 3.79790
4.31500E+06 3.82280
4.32050E+06 3.47570
4.32600E+06 3.86870
4.34000E+06 3.96890
4.34820E+06 4.02810
4.35370E+06 3.47240
4.35930E+06 3.76000
4.37000E+06 3.77810
4.37550E+06 3.78730
4.37560E+06 3.78760
4.37770E+06 3.79110
4.37960E+06 3.79450
4.38170E+06 3.79840
4.39290E+06 3.43730
4.40000E+06 3.56800
4.41740E+06 3.43120
4.42690E+06 3.07130
4.43260E+06 3.17179
4.43830E+06 3.45910
4.44410E+06 3.49620
4.44980E+06 3.08560
4.45560E+06 3.56660
4.46130E+06 3.73330
4.46710E+06 3.44230
4.46830E+06 3.50230
4.47430E+06 3.80260
4.47440E+06 3.80790
4.47870E+06 4.02320
4.48040E+06 3.96450
4.49610E+06 3.42229
4.49770E+06 3.71399
4.50000E+06 3.75320
4.51550E+06 4.01600
4.53020E+06 3.63120
4.53340E+06 3.70930
4.53840E+06 3.83109
4.54420E+06 3.97230
4.57250E+06 3.69640
4.57720E+06 3.49519
4.58640E+06 3.76910
4.59120E+06 3.91420
4.59150E+06 3.92210
4.60000E+06 3.77379
4.60580E+06 3.67220
4.61280E+06 3.74560
4.61540E+06 3.77530
4.62060E+06 3.70319
4.62500E+06 3.64230
4.63950E+06 3.75940
4.64430E+06 3.69210
4.65000E+06 3.78730
4.65890E+06 3.74710
4.67350E+06 3.35650
4.69320E+06 3.79870
4.70000E+06 3.83030
4.70280E+06 3.84309
4.71290E+06 3.73889
4.72550E+06 3.75210
4.74780E+06 3.37260
4.75000E+06 3.42980
4.76280E+06 3.76370
4.77290E+06 3.84130
4.79320E+06 3.66639
4.80000E+06 3.78569
4.80340E+06 3.92800
4.83000E+06 3.70840
4.83920E+06 3.73389
4.84440E+06 3.91669
4.87030E+06 3.72700
4.88600E+06 3.69830
4.89120E+06 3.54609
4.90000E+06 3.65010
4.90170E+06 3.67040
4.92280E+06 3.81150
4.94400E+06 3.62190
4.95470E+06 3.62749
4.96000E+06 3.56080
4.98690E+06 3.74950
4.99230E+06 3.54990
5.00000E+06 3.53430
5.00850E+06 3.51640
5.01390E+06 3.63619
5.01940E+06 3.50070
5.05220E+06 4.05010
5.05770E+06 3.86970
5.09090E+06 3.42719
5.10770E+06 3.66980
5.11880E+06 3.68459
5.13570E+06 3.48630
5.14700E+06 3.80589
5.15270E+06 3.80730
5.15830E+06 3.71420
5.17540E+06 3.90440
5.19250E+06 3.62760
5.20000E+06 3.68750
5.20400E+06 3.71930
5.21550E+06 3.53009
5.22130E+06 3.66710
5.24450E+06 3.59820
5.25000E+06 3.63360
5.25030E+06 3.63519
5.25620E+06 3.51019
5.28550E+06 3.82640
5.30000E+06 3.73570
5.30320E+06 3.71550
5.30910E+06 3.75070
5.31500E+06 3.95010
5.35680E+06 3.56530
5.38090E+06 3.72419
5.40000E+06 3.55070
5.42350E+06 3.61010
5.44800E+06 3.82820
5.50000E+06 3.70510
5.54800E+06 3.58850
5.58610E+06 3.69270
5.60000E+06 3.80839
5.61830E+06 3.80380
5.63120E+06 3.70079
5.63770E+06 3.86580
5.64410E+06 3.89420
5.65660E+06 3.63810
5.69650E+06 3.57750
5.73530E+06 3.62610
5.74290E+06 3.74020
5.75000E+06 3.70000
5.76290E+06 3.62720
5.78980E+06 3.72250
5.80000E+06 3.83799
5.80340E+06 3.87660
5.81690E+06 3.54360
5.83060E+06 3.65730
5.83740E+06 3.58559
5.85790E+06 3.72239
5.87170E+06 3.52259
5.88550E+06 3.64860
5.90630E+06 3.51709
5.93420E+06 3.75319
5.94130E+06 3.87240
5.95530E+06 3.63949
5.96940E+06 3.75329
6.00000E+06 3.55649
6.03360E+06 3.82360
6.04790E+06 3.63010
6.05700E+06 3.73289
6.08410E+06 3.67149
6.09140E+06 3.57050
6.09870E+06 3.73279
6.11330E+06 3.69510
6.12070E+06 3.53730
6.13540E+06 3.47380
6.15750E+06 3.72079
6.17980E+06 3.62810
6.19470E+06 3.38629
6.20000E+06 3.44239
6.22470E+06 3.70360
6.27780E+06 3.45169
6.30070E+06 3.69850
6.30840E+06 3.59000
6.31610E+06 3.60489
6.32380E+06 3.75190
6.34000E+06 3.65739
6.37810E+06 3.80020
6.39370E+06 3.67690
6.40000E+06 3.73639
6.40160E+06 3.75150
6.42520E+06 3.73600
6.44100E+06 3.54099
6.45690E+06 3.74839
6.48080E+06 3.46330
6.50000E+06 3.70869
6.50490E+06 3.77099
6.52910E+06 3.59450
6.54000E+06 3.61289
6.56150E+06 3.78789
6.58610E+06 3.56219
6.60000E+06 3.63089
6.62720E+06 3.76610
6.66880E+06 3.57850
6.70000E+06 3.55890
6.71070E+06 3.55210
6.74000E+06 3.62970
6.80000E+06 3.60021
6.83030E+06 3.58620
6.88260E+06 3.67460
6.92650E+06 3.59380
6.95310E+06 3.63960
6.97100E+06 3.48790
7.00000E+06 3.55631
7.01580E+06 3.47820
7.04290E+06 3.56121
7.06110E+06 3.49391
7.07930E+06 3.64090
7.13000E+06 3.53391
7.17160E+06 3.60871
7.28000E+06 3.50661
7.37130E+06 3.62971
7.40000E+06 3.55241
7.42010E+06 3.49891
7.44990E+06 3.51185
7.50000E+06 3.53361
7.59980E+06 3.57561
7.62020E+06 3.45330
7.74720E+06 3.47360
7.75700E+06 3.47520
7.78150E+06 3.47917
7.87000E+06 3.49350
8.00000E+06 3.43680
8.10200E+06 3.39040
8.10250E+06 3.39010
8.21440E+06 3.33931
8.32000E+06 3.47191
8.50000E+06 3.35211
8.66660E+06 3.23991
9.00000E+06 3.27351
9.50000E+06 3.20000
1.00000E+07 3.12680
1.03640E+07 3.07350
1.03740E+07 3.07210
1.04200E+07 3.06570
1.05000E+07 3.05418
1.06000E+07 3.04050
1.07200E+07 3.02430
1.07230E+07 3.02379
1.07460E+07 3.02081
1.07461E+07 3.02080
1.08000E+07 3.01379
1.10000E+07 2.98640
1.13000E+07 2.94100
1.13990E+07 2.92320
1.14020E+07 2.92280
1.14060E+07 2.92250
1.15000E+07 2.90778
1.16000E+07 2.89230
1.17000E+07 2.87510
1.18000E+07 2.85790
1.19000E+07 2.84019
1.20000E+07 2.82240
1.21430E+07 2.78739
1.21440E+07 2.78740
1.21480E+07 2.78660
1.22000E+07 2.77789
1.23000E+07 2.76120
1.24000E+07 2.75290
1.25000E+07 2.74451
1.26000E+07 2.73060
1.28000E+07 2.71710
1.30000E+07 2.70360
1.32000E+07 2.68020
1.34000E+07 2.65890
1.35000E+07 2.65080
1.36000E+07 2.63840
1.36200E+07 2.63650
1.38000E+07 2.61679
1.40000E+07 2.59829
1.42000E+07 2.57520
1.45000E+07 2.54060
1.46000E+07 2.53160
1.50000E+07 2.49540
1.53000E+07 2.46850
1.55000E+07 2.44921
1.56000E+07 2.44130
1.60000E+07 2.40690
1.65000E+07 2.36618
1.70000E+07 2.32480
1.75000E+07 2.30780
1.80000E+07 2.29300
1.85000E+07 2.27700
1.90000E+07 2.26420
1.95000E+07 2.25110
2.00000E+07 2.23800
2.00000E+07 2.23790
2.10000E+07 2.23872
2.20000E+07 2.23800
2.30000E+07 2.23353
2.40000E+07 2.23000
2.50000E+07 2.23659
2.50486E+07 2.23717
2.56770E+07 2.24633
2.60000E+07 2.25200
2.60543E+07 2.25300
2.70000E+07 2.27058
2.71124E+07 2.27271
2.77821E+07 2.28567
2.78720E+07 2.28745
2.80000E+07 2.29000
2.80650E+07 2.29130
2.86409E+07 2.30282
2.88363E+07 2.30672
2.90000E+07 2.30999
2.90181E+07 2.31035
3.00000E+07 2.33000
3.04623E+07 2.33945
3.10000E+07 2.35077
3.20000E+07 2.37231
3.30000E+07 2.39382
3.40000E+07 2.41458
3.46587E+07 2.42756
3.50000E+07 2.43400
3.56570E+07 2.44560
3.60000E+07 2.45120
3.68813E+07 2.46434
3.70000E+07 2.46598
3.72079E+07 2.46879
3.73580E+07 2.47077
3.74638E+07 2.47214
3.80000E+07 2.47879
3.83358E+07 2.48271
3.84074E+07 2.48353
3.88965E+07 2.48891
3.90000E+07 2.49001
4.00000E+07 2.50000
4.10000E+07 2.50838
4.12870E+07 2.51038
4.20000E+07 2.51456
4.22565E+07 2.51579
4.30000E+07 2.51854
4.36706E+07 2.51999
4.40000E+07 2.52034
4.50000E+07 2.52000
4.59164E+07 2.51813
4.59879E+07 2.51794
4.60000E+07 2.51791
4.70000E+07 2.51462
4.78124E+07 2.51124
4.80000E+07 2.51039
4.82216E+07 2.50935
4.90000E+07 2.50545
5.00000E+07 2.50000
5.00934E+07 2.49947
5.04386E+07 2.49750
5.10000E+07 2.49418
5.20000E+07 2.48790
5.20091E+07 2.48785
5.30000E+07 2.48103
5.31293E+07 2.48009
5.37150E+07 2.47567
5.40000E+07 2.47343
5.40615E+07 2.47293
5.50000E+07 2.46500
5.58890E+07 2.45663
5.60000E+07 2.45551
5.70000E+07 2.44477
5.80000E+07 2.43277
5.90000E+07 2.41951
5.93380E+07 2.41475
5.93404E+07 2.41471
6.00000E+07 2.40500
6.04291E+07 2.39848
6.08223E+07 2.39246
6.10000E+07 2.38973
6.12078E+07 2.38653
6.20000E+07 2.37429
6.30000E+07 2.35878
6.40000E+07 2.34332
6.50000E+07 2.32800
6.57457E+07 2.31683
6.59363E+07 2.31402
6.60000E+07 2.31309
6.61631E+07 2.31070
6.70000E+07 2.29847
6.80000E+07 2.28368
6.90000E+07 2.26831
6.90388E+07 2.26770
6.92094E+07 2.26499
7.00000E+07 2.25200
7.10000E+07 2.23460
7.20000E+07 2.21645
7.30000E+07 2.19792
7.40000E+07 2.17934
7.40529E+07 2.17836
7.50000E+07 2.16100
7.60000E+07 2.14288
7.70000E+07 2.12493
7.80000E+07 2.10735
7.90000E+07 2.09032
8.00000E+07 2.07400
8.10000E+07 2.05841
8.20000E+07 2.04334
8.30000E+07 2.02866
8.40000E+07 2.01425
8.50000E+07 2.00000
8.60000E+07 1.98588
8.70000E+07 1.97188
8.80000E+07 1.95794
8.90000E+07 1.94400
9.00000E+07 1.93000
9.10000E+07 1.91494
9.20000E+07 1.89851
9.30000E+07 1.88166
9.40000E+07 1.86524
9.50000E+07 1.85000
9.60000E+07 1.83653
9.70000E+07 1.82426
9.80000E+07 1.81229
9.90000E+07 1.79979
1.00000E+08 1.78600
1.02000E+08 1.75660
1.04000E+08 1.72727
1.06000E+08 1.69826
1.08000E+08 1.66978
1.10000E+08 1.64200
1.12000E+08 1.61509
1.14000E+08 1.58905
1.16000E+08 1.56375
1.18000E+08 1.53910
1.20000E+08 1.51500
1.22000E+08 1.49129
1.24000E+08 1.46798
1.26000E+08 1.44525
1.28000E+08 1.42322
1.30000E+08 1.40200
1.32000E+08 1.38174
1.34000E+08 1.36248
1.36000E+08 1.34414
1.38000E+08 1.32666
1.40000E+08 1.31000
1.42000E+08 1.29567
1.44000E+08 1.28459
1.46000E+08 1.27594
1.48000E+08 1.26897
1.50000E+08 1.26300