Co-59(n,tot) ENDF/B-VII.1
Energy(eV) XS(b)
1.00000E-05 1875.10
1.25000E-05 1677.78
1.50000E-05 1532.11
2.00000E-05 1327.65
2.75000E-05 1133.10
3.50000E-05 1005.07
4.25000E-05 912.639
5.00000E-05 841.878
6.25000E-05 753.630
7.50000E-05 688.488
0.000100000 597.050
0.000125000 534.649
0.000150000 488.587
0.000200000 423.930
0.000275000 362.410
0.000350000 321.921
0.000425000 292.692
0.000500000 270.316
0.000625000 242.410
0.000750000 221.810
0.00100000 192.895
0.00125000 173.163
0.00150000 158.597
0.00200000 138.151
0.00275000 118.697
0.00350000 105.894
0.00425000 96.6510
0.00500000 89.5753
0.00625000 80.7511
0.00750000 74.2374
0.0100000 65.0945
0.0125000 58.8552
0.0150000 54.2497
0.0200000 47.7853
0.0253000 43.1518
0.0314750 39.3090
0.0376500 36.4558
0.0500000 32.4294
0.0625000 29.6405
0.0750000 27.5821
0.100000 24.6934
0.125000 22.7225
0.150000 21.2682
0.200000 19.2274
0.275000 17.2870
0.350000 16.0110
0.500000 14.3865
0.750000 12.8628
1.00000 11.9569
1.50000 10.8868
2.00000 10.2527
2.75000 9.65442
3.50000 9.26524
5.00000 8.77950
7.50000 8.34667
10.0000 8.11599
15.0000 7.91823
20.0000 7.90751
27.5000 8.12137
35.0000 8.58747
50.0000 10.4796
62.5000 13.6750
75.0000 19.9030
81.2500 25.2152
87.5000 33.2271
93.7500 45.9128
100.000 67.3855
103.641 87.3379
107.283 117.124
110.924 164.104
114.565 243.843
118.206 393.825
120.027 522.842
121.848 722.173
123.668 1050.25
125.489 1634.92
127.309 2779.63
128.220 3759.80
129.130 5180.09
130.565 8374.15
132.000 10539.8
133.435 8491.50
134.870 5364.45
135.888 3817.78
136.905 2785.03
137.923 2095.43
138.941 1623.78
140.976 1050.13
143.011 733.187
145.047 541.560
147.082 417.370
151.153 271.775
155.223 192.883
159.294 145.282
163.364 114.282
167.435 92.9110
175.576 66.0286
183.718 50.2795
191.859 40.1869
200.000 33.2857
218.750 23.6896
237.500 18.3862
256.250 15.0841
275.000 12.8527
312.500 10.0513
350.000 8.37061
387.500 7.24852
425.000 6.44249
500.000 5.35085
625.000 4.27267
750.000 3.60620
1000.00 2.77702
1192.78 2.35115
1289.16 2.17698
1337.36 2.09742
1361.45 2.06015
1373.50 2.04540
1376.51 2.04481
1379.53 2.05141
1381.03 2.06421
1381.79 2.07770
1382.54 2.10238
1383.29 2.15341
1383.67 2.20164
1384.04 2.28348
1384.42 2.43921
1384.61 2.57467
1384.80 2.78740
1384.99 3.14932
1385.17 3.82036
1385.27 4.38653
1385.36 5.23357
1385.46 6.53776
1385.55 8.55202
1385.68 12.4608
1385.80 15.0630
1385.93 12.4618
1386.05 8.55300
1386.20 5.69320
1386.35 4.26009
1386.50 3.50015
1386.65 3.06175
1386.80 2.78951
1386.95 2.61009
1387.25 2.39689
1387.55 2.28038
1387.85 2.20995
1388.45 2.13277
1389.05 2.09333
1389.65 2.07039
1390.85 2.04557
1393.25 2.02462
1395.64 2.01468
1400.44 2.00282
1405.24 1.99398
1424.42 1.96398
1462.79 1.90855
1539.54 1.80486
1693.03 1.62082
2000.00 1.33518
2138.47 1.24209
2207.71 1.20484
2242.33 1.18932
2259.64 1.18471
2263.97 1.18585
2268.29 1.19230
2270.46 1.20263
2272.62 1.23239
2273.70 1.27245
2274.24 1.31091
2274.79 1.37782
2275.33 1.50959
2275.60 1.62951
2275.87 1.82559
2276.14 2.18055
2276.27 2.47346
2276.41 2.91009
2276.54 3.59606
2276.68 4.74356
2276.81 6.79733
2276.95 10.6155
2277.07 16.2763
2277.20 20.0491
2277.33 16.2796
2277.45 10.6196
2277.60 6.64071
2277.74 4.57493
2277.88 3.45083
2278.02 2.79454
2278.17 2.37856
2278.31 2.10374
2278.59 1.77286
2278.88 1.59057
2279.16 1.47994
2279.73 1.35841
2280.30 1.29671
2280.87 1.26115
2282.01 1.22376
2284.29 1.19497
2286.57 1.18389
2291.13 1.17467
2295.69 1.17030
2313.94 1.16124
2350.42 1.14935
2423.38 1.13351
2569.31 1.13301
2715.25 1.18353
2788.21 1.23394
2824.69 1.27174
2833.81 1.28698
2838.37 1.29803
2842.93 1.31464
2847.50 1.34503
2849.78 1.37293
2852.06 1.42155
2854.34 1.52113
2855.48 1.61710
2856.62 1.78664
2857.19 1.92531
2857.76 2.13115
2858.33 2.45578
2858.90 3.01151
2859.47 4.08136
2859.75 5.03059
2860.04 6.55133
2860.32 9.19772
2860.61 14.3555
2860.75 18.9418
2860.89 26.0916
2861.03 37.9008
2861.18 57.4154
2861.34 91.2667
2861.50 113.683
2861.66 91.0722
2861.83 57.4522
2861.96 38.3630
2862.10 26.7700
2862.24 19.5387
2862.38 14.9141
2862.65 9.60803
2862.93 6.85633
2863.20 5.26428
2863.48 4.26594
2864.03 3.13596
2864.58 2.54686
2865.13 2.20216
2865.68 1.98351
2866.23 1.83634
2867.33 1.65697
2868.43 1.55627
2870.62 1.45390
2872.82 1.40628
2875.02 1.38101
2879.42 1.35795
2883.82 1.34984
2888.22 1.34778
2897.02 1.35114
2932.21 1.39029
3002.60 1.49988
3143.38 1.81366
3284.16 2.29149
3424.94 3.00871
3565.71 4.09226
3706.49 5.77628
3847.27 8.56871
3917.66 10.7493
3952.85 12.1800
3970.45 13.0200
3979.25 13.4988
3981.45 13.6429
3983.65 13.8365
3984.75 13.9980
3985.30 14.1271
3985.85 14.3333
3986.40 14.7230
3986.67 15.0779
3986.95 15.6760
3987.22 16.8168
3987.36 17.8306
3987.50 19.4431
3987.64 22.2768
3987.77 27.7866
3987.84 32.7280
3987.91 40.4056
3987.98 53.2624
3988.05 74.4994
3988.12 110.924
3988.20 135.254
3988.28 110.980
3988.35 74.5767
3988.42 53.1055
3988.49 40.3469
3988.56 32.6367
3988.63 27.7595
3988.77 22.2894
3988.91 19.5030
3989.04 17.9110
3989.18 16.9225
3989.46 15.8178
3989.73 15.2528
3990.01 14.9297
3990.56 14.6028
3991.11 14.4582
3991.67 14.3906
3992.77 14.3524
3994.98 14.4058
3997.18 14.5094
4006.01 15.0270
4023.66 16.2217
4058.97 19.2044
4129.58 29.4675
4164.88 39.2871
4200.19 56.7696
4235.50 92.0938
4253.15 123.753
4270.80 171.907
4296.95 281.440
4323.10 376.042
4349.25 333.721
4375.40 237.639
4394.18 186.488
4412.96 152.145
4450.53 114.864
4488.09 99.1112
4525.65 93.6196
4600.78 97.9617
4675.90 114.538
4837.95 178.685
5000.00 237.614
5016.00 239.425
5058.51 239.337
5101.03 232.579
5186.05 205.174
5356.10 139.730
5485.18 103.066
5614.25 78.1529
5743.33 61.2465
5872.40 49.4631
6130.55 34.6306
6259.63 29.6678
6324.17 27.3772
6340.30 26.7301
6356.43 25.9457
6364.50 25.4344
6368.54 25.1222
6372.57 24.7563
6376.60 24.3356
6378.62 24.1274
6380.64 23.9842
6382.65 24.1048
6383.66 24.4568
6384.67 25.3053
6385.68 27.3101
6386.18 29.2347
6386.69 32.3733
6387.19 37.7099
6387.69 47.2764
6388.20 65.4630
6388.70 101.308
6389.20 163.951
6389.70 220.807
6390.20 199.960
6390.70 145.916
6391.10 112.776
6391.50 90.6067
6391.91 75.8502
6392.31 65.7447
6393.12 53.3242
6393.92 46.2817
6394.73 41.8787
6395.53 38.9175
6397.15 35.2498
6398.76 33.1006
6400.37 31.7009
6403.59 29.9921
6406.82 28.9820
6410.04 28.3052
6416.49 27.4295
6422.94 26.8586
6429.38 26.4345
6442.28 25.8005
6468.07 24.8863
6493.86 24.1573
6597.02 21.8426
6803.34 18.3548
7215.99 13.4520
7422.31 11.4389
7628.64 9.29685
7731.80 7.95047
7783.38 7.11284
7834.96 6.08584
7886.54 4.76925
7912.33 3.96870
7938.12 3.08519
7963.91 2.25526
7976.81 2.02342
7989.70 2.18483
7996.15 2.56821
8002.60 3.31458
8009.04 4.64414
8015.49 6.92721
8021.94 10.8034
8028.39 17.3844
8034.83 28.5750
8041.28 47.2876
8051.59 98.1494
8056.75 126.601
8061.90 144.231
8072.21 132.957
8082.52 100.222
8093.05 74.8405
8103.57 58.5519
8114.10 47.9761
8124.62 40.7948
8145.68 31.9158
8166.73 26.7585
8187.78 23.4294
8208.83 21.1128
8250.94 18.1004
8293.04 16.2154
8335.14 14.9099
8419.35 13.1812
8587.77 11.2010
8671.97 10.4925
8693.02 10.3100
8714.08 10.0965
8724.60 9.95660
8729.87 9.86739
8735.13 9.75408
8740.39 9.59721
8743.02 9.49029
8745.65 9.35231
8748.29 9.16931
8750.92 8.94432
8752.23 8.87411
8752.89 8.91165
8753.55 9.09885
8754.21 9.68941
8754.54 10.3496
8754.86 11.5520
8755.19 13.8741
8755.52 18.7737
8755.69 23.3011
8755.85 30.4831
8756.02 42.3331
8756.18 62.1720
8756.60 143.617
8756.81 130.133
8757.02 92.2461
8757.19 69.2223
8757.35 53.8971
8757.52 43.6510
8757.69 36.6987
8758.02 28.1716
8758.35 23.3783
8758.69 20.4076
8759.02 18.4267
8759.69 16.0024
8760.35 14.6057
8761.02 13.7115
8761.68 13.0956
8762.35 12.6479
8763.68 12.0439
8765.01 11.6568
8766.35 11.3879
8767.68 11.1902
8770.34 10.9173
8773.00 10.7363
8778.33 10.5059
8783.66 10.3598
8788.98 10.2544
8799.64 10.1033
8820.95 9.89895
8842.26 9.74456
8927.49 9.27105
9097.95 8.53458
9268.42 7.91032
9353.65 7.61684
9396.27 7.47181
9417.58 7.40399
9428.23 7.39103
9430.90 7.40629
9433.56 7.46442
9434.89 7.54918
9436.22 7.77835
9436.89 8.06767
9437.56 8.76312
9437.89 9.54166
9438.22 11.1433
9438.39 12.6512
9438.55 15.1506
9438.72 19.5953
9438.89 27.7907
9439.04 40.1600
9439.20 48.3665
9439.36 40.1198
9439.52 27.8417
9439.64 21.2277
9439.77 17.0535
9439.89 14.4006
9440.02 12.6681
9440.27 10.6296
9440.51 9.55507
9441.01 8.52301
9441.51 8.06525
9442.51 7.68064
9443.51 7.52617
9445.50 7.40210
9447.50 7.35129
9451.49 7.30437
9455.48 7.27816
9471.45 7.20819
9503.39 7.08430
9535.32 6.95318
9567.26 6.80462
9599.20 6.62020
9615.16 6.50133
9631.13 6.34776
9647.10 6.12744
9655.08 5.96964
9663.07 5.75228
9667.06 5.60768
9671.05 5.42600
9675.04 5.18990
9679.04 4.87019
9681.03 4.66436
9683.03 4.41643
9685.02 4.11579
9687.02 3.75548
9689.02 3.35937
9690.01 3.19309
9691.01 3.13841
9692.01 3.41542
9692.51 3.84971
9693.01 4.69324
9693.51 6.29058
9693.76 7.56832
9694.01 9.33020
9694.26 11.7916
9694.51 15.2153
9694.75 19.9920
9695.00 26.5924
9695.30 37.5795
9695.60 51.7348
9696.20 77.0736
9696.50 78.8807
9696.80 73.3027
9697.40 55.5978
9697.99 41.7702
9698.58 32.8276
9699.17 27.0274
9699.76 23.1093
9700.36 20.3434
9700.95 18.3130
9702.13 15.5697
9703.31 13.8269
9704.49 12.6336
9706.86 11.1187
9709.22 10.2042
9711.58 9.59462
9713.95 9.15982
9716.31 8.83404
9721.04 8.37756
9725.77 8.07184
9730.50 7.85138
9735.23 7.68377
9744.68 7.44286
9754.14 7.27469
9773.05 7.04630
9791.96 6.88918
9810.88 6.76740
9848.70 6.57627
9924.35 6.27951
10000.0 6.02218
10170.0 5.47139
10255.0 5.19513
10340.0 4.93177
10424.9 4.75427
10467.4 4.77886
10509.9 5.01883
10552.4 5.80507
10573.7 6.66856
10594.9 8.19601
10616.2 11.0222
10637.4 16.6079
10648.0 21.4362
10658.7 28.6841
10669.3 39.7985
10679.9 56.9233
10713.0 142.044
10721.3 143.655
10729.6 130.709
10746.1 92.2181
10760.7 66.2926
10775.2 49.5972
10789.8 38.8863
10804.3 31.7619
10833.5 23.2568
10862.6 18.5597
10891.7 15.6664
10920.8 13.7359
10979.1 11.3535
11037.3 9.95165
11095.5 9.02854
11212.0 7.87364
11328.5 7.16009
11444.9 6.65720
11561.4 6.27054
11619.6 6.10568
11648.8 6.02885
11663.3 5.99211
11670.6 5.97587
11674.2 5.97513
11676.1 6.00221
11677.0 6.10951
11677.4 6.42632
11677.7 7.16445
11677.8 8.25608
11677.9 11.6539
11677.9 15.1306
11678.0 17.4132
11678.1 15.1503
11678.1 11.6784
11678.2 8.61323
11678.3 7.46920
11678.5 6.58947
11678.9 6.16732
11679.6 6.01504
11681.1 5.96491
11684.2 5.94457
11690.2 5.92635
11702.2 5.89638
11726.3 5.83975
11774.5 5.73500
11798.6 5.69013
11810.6 5.67245
11822.7 5.66220
11834.7 5.67017
11840.7 5.69083
11846.8 5.73853
11849.8 5.78272
11852.8 5.85246
11855.8 5.96857
11858.8 6.17766
11861.8 6.60329
11863.3 7.00164
11864.8 7.66675
11866.3 8.91521
11867.1 9.97693
11867.8 11.6107
11868.6 14.3380
11869.4 19.1513
11870.1 28.6147
11870.5 36.8980
11870.9 48.6440
11871.4 74.8141
11872.0 91.9158
11872.6 74.5035
11873.2 48.8594
11873.5 36.8436
11873.9 28.8053
11874.7 19.3053
11875.4 14.4617
11876.2 11.7379
11876.9 10.0753
11877.7 8.99259
11879.2 7.72058
11880.7 7.03240
11882.2 6.61888
11885.1 6.16809
11888.1 5.93765
11891.1 5.80356
11894.1 5.71709
11897.1 5.65756
11903.1 5.58055
11909.1 5.53210
11921.1 5.47073
11933.1 5.42890
11945.0 5.39500
11969.0 5.33669
12016.9 5.22605
12028.9 5.19366
12040.9 5.15207
12046.9 5.12211
12052.9 5.07454
12055.9 5.03406
12058.9 4.96370
12060.4 4.90214
12061.9 4.79948
12062.6 4.72018
12063.4 4.62156
12063.7 4.59062
12064.1 4.68498
12064.3 4.93216
12064.5 5.62085
12064.6 6.52174
12064.7 8.11486
12064.8 11.3728
12064.8 18.3843
12064.9 29.9665
12065.0 40.9598
12065.1 37.7540
12065.2 27.9254
12065.2 20.6037
12065.3 16.5683
12065.5 12.1520
12065.6 9.98088
12065.7 8.75636
12066.0 7.44719
12066.3 6.82329
12066.9 6.21030
12067.4 5.92006
12068.6 5.64451
12069.7 5.51285
12072.0 5.38464
12074.3 5.32074
12078.8 5.25438
12083.4 5.21786
12092.5 5.17366
12101.6 5.14380
12138.1 5.06008
12211.0 4.92698
12356.8 4.68425
12648.5 4.20359
12794.3 3.93399
12940.2 3.60104
13013.1 3.38346
13049.5 3.25184
13086.0 3.09832
13122.5 2.91653
13158.9 2.70448
13177.1 2.59424
13195.4 2.50073
13213.6 2.47869
13222.7 2.54474
13227.3 2.63622
13229.6 2.78059
13230.7 3.14518
13231.0 3.45444
13231.3 4.12886
13231.5 6.14975
13231.7 8.99051
13231.8 11.6762
13231.8 16.0739
13231.9 24.0688
13232.0 29.6067
13232.1 24.1654
13232.2 16.2015
13232.3 10.9038
13232.4 7.81050
13232.6 5.22283
13232.8 4.15409
13233.0 3.66972
13233.3 3.23101
13233.7 3.05589
13235.3 2.90191
13238.4 2.97394
13244.6 3.35850
13250.8 4.04495
13257.0 5.25506
13263.3 7.48306
13269.5 11.8391
13272.6 15.5691
13275.7 21.1224
13278.8 29.5466
13281.9 42.3312
13292.0 110.410
13294.5 112.586
13297.1 103.013
13302.1 72.9592
13307.6 48.5737
13313.2 34.4670
13318.7 26.1694
13324.2 20.9840
13329.7 17.5288
13335.3 15.1148
13346.3 12.0187
13357.4 10.1595
13368.4 8.93806
13390.5 7.45110
13412.6 6.58779
13434.7 6.02592
13478.9 5.33476
13523.1 4.91886
13567.3 4.63428
13611.5 4.42288
13633.6 4.34003
13644.7 4.32416
13647.5 4.34044
13650.2 4.40383
13651.6 4.49761
13653.0 4.75608
13653.7 5.08979
13654.4 5.91753
13654.7 6.89912
13655.0 8.95896
13655.2 11.1367
13655.4 14.8167
13655.6 21.9447
13655.7 28.4317
13655.7 36.8517
13655.9 57.2457
13656.0 69.7616
13656.1 57.3986
13656.3 37.0435
13656.4 26.1576
13656.5 18.9939
13656.6 14.6660
13656.7 11.9322
13657.0 8.87148
13657.2 7.31424
13657.7 5.86975
13658.2 5.24633
13659.1 4.73268
13660.1 4.53131
13662.0 4.37023
13663.9 4.30649
13671.6 4.22232
13686.9 4.15787
13717.5 4.06402
13778.8 3.90647
13901.3 3.64920
14146.3 3.23409
14391.4 2.85736
14636.4 2.46704
14881.4 2.01966
15003.9 1.75570
15126.4 1.45004
15249.0 1.09257
15310.2 0.900044
15371.5 0.723741
15432.7 0.649906
15463.4 0.735355
15494.0 1.03140
15509.3 1.33063
15524.6 1.80537
15539.9 2.56022
15555.3 3.77408
15570.6 5.77273
15585.9 9.15755
15601.2 15.0712
15616.5 25.5379
15635.8 48.5246
15655.0 72.4731
15664.6 74.4778
15674.3 68.7488
15693.5 49.7630
15711.7 35.5714
15729.9 26.4556
15748.0 20.6241
15766.2 16.7420
15802.6 12.0778
15838.9 9.46449
15875.3 7.82611
15911.7 6.71183
15984.4 5.29680
16057.1 4.43063
16129.8 3.84040
16275.3 3.09713
16420.7 2.76903
16493.4 2.81924
16566.1 3.15567
16638.9 4.08981
16675.2 5.00212
16711.6 6.46467
16747.9 8.86365
16784.3 12.9297
16820.7 20.0775
16857.0 32.9041
16943.0 87.9619
16964.5 90.5910
16986.0 83.5937
17029.0 59.7930
17080.3 38.6109
17131.6 26.8136
17182.9 20.0729
17234.2 15.9241
17285.5 13.1866
17336.8 11.2744
17439.3 8.81093
17541.9 7.30484
17644.5 6.28859
17849.7 4.98686
18054.8 4.16086
18260.0 3.56202
18465.2 3.07893
18567.8 2.84588
18593.4 2.77858
18619.1 2.69505
18631.9 2.63763
18644.7 2.55227
18651.1 2.48582
18657.5 2.38461
18660.7 2.31368
18663.9 2.24251
18665.5 2.24696
18667.1 2.42359
18667.9 2.75248
18668.7 3.64530
18669.1 4.64442
18669.5 6.54632
18669.9 10.4853
18670.1 13.9943
18670.3 19.2808
18671.0 48.2028
18671.2 49.2674
18671.3 45.2494
18671.7 32.1092
18671.9 24.1685
18672.2 18.7346
18672.4 15.0725
18672.7 12.6336
18673.1 9.52915
18673.6 7.75717
18674.1 6.64810
18674.6 5.90353
18675.6 4.98626
18676.6 4.45018
18677.6 4.10965
18679.5 3.70253
18681.5 3.46918
18683.5 3.31992
18687.4 3.13862
18691.3 3.03200
18695.2 2.96081
18703.1 2.86936
18711.0 2.81034
18718.8 2.76711
18734.5 2.70354
18765.9 2.61382
18797.4 2.54270
18923.1 2.30504
19048.7 2.06927
19080.2 1.99634
19111.6 1.89890
19127.3 1.82605
19135.2 1.77560
19143.0 1.70734
19150.9 1.60528
19154.8 1.53079
19158.7 1.42829
19162.7 1.27651
19166.6 1.03321
19168.6 0.857855
19170.5 0.677173
19171.5 0.673929
19172.5 1.03057
19173.0 1.67731
19173.5 3.30773
19173.7 5.02384
19173.9 7.86214
19174.2 13.1762
19174.4 22.5317
19175.0 63.3951
19175.2 65.3767
19175.3 60.3480
19175.6 43.7456
19175.9 29.9674
19176.2 21.8633
19176.5 16.7342
19176.8 13.5461
19177.1 11.3065
19177.3 9.76828
19177.9 7.72561
19178.5 6.47954
19179.1 5.65245
19180.3 4.64350
19181.5 4.04948
19182.6 3.66685
19185.0 3.20011
19187.3 2.92755
19189.7 2.75028
19194.4 2.53190
19199.1 2.40130
19203.8 2.31372
19213.2 2.20097
19222.6 2.12911
19232.0 2.07732
19250.9 2.00347
19288.5 1.90490
19326.1 1.83096
19476.7 1.59999
19627.2 1.39595
19664.9 1.34357
19702.5 1.28682
19740.2 1.22159
19749.6 1.20890
19759.0 1.22186
19763.7 1.27295
19766.0 1.33580
19768.4 1.46052
19770.7 1.73280
19771.9 1.99564
19773.1 2.43600
19774.3 3.25171
19775.4 4.92123
19776.0 6.48374
19776.6 9.05179
19777.2 13.5361
19777.8 21.5710
19779.0 52.6108
19779.3 54.1069
19779.6 49.2720
19780.2 33.1865
19780.6 24.0361
19781.1 17.8236
19781.5 13.6892
19781.9 10.8838
19782.8 7.50708
19783.7 5.65839
19784.5 4.54393
19785.4 3.82064
19787.1 2.97026
19788.8 2.49896
19790.5 2.20931
19794.0 1.88182
19797.4 1.70534
19800.8 1.59727
19807.7 1.47217
19814.6 1.40165
19821.4 1.35554
19835.2 1.29648
19848.9 1.25755
19862.6 1.22794
19890.1 1.18196
20000.0 1.05352
20221.7 0.880211
20443.4 0.814819
20665.1 0.940067
20775.9 1.12687
20831.3 1.26705
20859.1 1.35254
20872.9 1.40386
20879.8 1.44992
20883.3 1.54769
20885.0 1.85311
20885.9 2.75345
20886.3 4.76234
20886.6 7.95591
20886.7 11.2737
20886.8 16.5055
20886.9 25.4739
20887.0 31.7111
20887.1 25.6155
20887.2 16.6813
20887.3 11.4391
20887.5 8.10227
20887.7 4.96796
20888.1 2.85675
20889.0 1.91752
20890.7 1.59890
20894.1 1.51425
20901.0 1.51275
20914.7 1.55984
20942.2 1.67762
20997.1 1.96264
21106.9 2.76721
21216.8 4.01828
21271.7 4.87831
21299.1 5.37196
21312.9 5.62305
21319.7 5.76318
21323.2 5.99366
21324.0 6.21037
21324.9 6.77211
21325.3 7.43993
21325.8 8.87986
21326.0 10.3200
21326.2 12.6779
21326.4 16.9784
21326.6 25.8187
21327.0 55.2499
21327.1 56.1102
21327.2 50.9900
21327.4 36.0687
21327.5 27.5863
21327.7 22.1196
21327.9 15.7542
21328.2 12.4226
21328.5 10.6308
21329.0 8.77601
21329.5 7.91777
21330.6 7.14142
21331.6 6.82072
21333.7 6.56934
21335.8 6.48951
21340.0 6.47516
21344.3 6.52533
21352.7 6.68541
21361.1 6.87687
21394.8 7.77537
21462.2 10.0555
21597.0 17.0616
21956.0 51.6580
22135.5 51.6589
22225.3 47.1204
22315.0 45.0420
22406.0 51.6654
22538.0 86.4001
22604.0 81.9517
22670.0 61.7676
22720.9 48.6123
22771.8 39.1702
22873.5 27.5552
22975.3 20.9264
23077.0 16.6217
23280.5 11.1668
23484.0 7.59009
23687.5 4.81679
23891.0 2.52502
23992.8 1.70106
24043.6 1.49238
24094.5 1.54692
24145.4 2.05451
24170.8 2.57486
24196.3 3.35014
24247.1 6.01166
24298.0 10.9411
24343.0 18.0272
24388.0 27.7851
24433.0 38.3766
24478.0 46.0374
24568.0 45.9640
24658.0 36.9183
24764.5 27.9836
24871.0 22.7387
24924.3 21.5426
24977.5 21.7764
25030.8 24.7561
25084.0 33.9858
25174.0 70.9857
25219.0 69.6365
25264.0 53.9119
25307.5 41.2343
25351.0 32.9291
25394.5 27.4987
25438.0 23.7743
25524.9 19.0321
25611.9 16.0775
25698.9 13.9398
25785.9 12.1302
25829.3 11.2017
25851.1 10.6876
25872.8 10.1085
25894.6 9.42668
25905.5 9.03732
25916.3 8.62465
25927.2 8.24936
25932.6 8.14214
25938.1 8.19309
25943.5 8.61288
25948.9 9.92269
25954.4 13.5365
25957.1 17.2442
25959.8 23.2567
25964.4 41.1746
25969.0 61.4954
25973.6 61.6251
25978.2 49.3183
25983.1 38.1597
25988.1 30.9872
25993.0 26.4022
25997.9 23.3387
26002.8 21.1792
26007.8 19.5958
26017.6 17.4381
26027.5 16.0424
26037.3 15.0625
26057.0 13.7612
26076.7 12.9144
26096.4 12.3010
26135.8 11.4306
26175.2 10.8036
26214.6 10.3032
26293.4 9.50367
26451.0 8.27790
26608.7 7.26912
26766.3 6.36666
26923.9 5.60123
27002.7 5.38084
27081.5 5.52165
27120.9 5.91287
27160.3 6.75841
27199.7 8.47474
27209.6 9.13350
27219.4 9.94330
27224.3 10.4413
27229.3 11.0855
27231.7 11.5613
27233.0 11.8985
27234.2 12.3806
27235.4 13.1714
27236.0 13.8111
27236.6 14.7506
27237.3 16.2919
27237.9 18.9822
27238.2 21.2011
27238.5 24.4258
27238.8 29.2237
27239.1 36.0826
27239.6 50.8118
27240.0 60.7884
27240.5 51.2376
27240.9 36.6739
27241.3 28.7846
27241.6 23.9373
27242.0 20.8399
27242.3 18.8011
27243.0 16.4156
27243.7 15.2071
27244.4 14.5235
27245.1 14.1300
27246.5 13.7572
27248.0 13.6542
27249.4 13.6775
27252.2 13.9019
27257.8 14.6451
27263.5 15.5709
27286.0 20.5456
27377.0 56.9646
27422.5 57.0545
27468.0 44.2534
27522.4 31.6340
27576.9 24.0729
27631.3 19.4936
27685.7 16.5323
27740.1 14.4886
27794.6 12.9996
27903.4 10.9667
28012.3 9.62133
28121.1 8.63876
28338.8 7.22613
28556.5 6.16774
28774.2 5.25427
28991.9 4.36982
29100.8 3.90142
29155.2 3.64907
29182.4 3.51789
29196.0 3.46325
29202.8 3.49019
29206.2 3.70004
29207.0 3.90335
29207.9 4.39789
29208.3 4.96273
29208.7 6.09701
29209.2 8.99937
29209.4 12.1446
29209.6 17.9885
29209.8 27.0023
29210.0 32.8259
29210.2 27.2053
29210.4 18.2308
29210.6 11.9663
29210.9 8.75121
29211.3 5.95353
29211.8 4.84488
29212.3 4.32485
29213.2 3.85446
29214.1 3.65567
29217.8 3.41931
29225.3 3.31385
29240.1 3.20983
29269.8 3.01901
29299.5 2.80441
29329.2 2.54428
29358.9 2.19982
29373.7 1.97153
29388.6 1.68024
29403.4 1.29019
29410.9 1.04298
29418.3 0.757183
29425.7 0.454471
29429.4 0.330445
29433.1 0.283546
29436.8 0.441769
29438.7 0.688393
29440.5 1.14330
29442.4 1.95380
29444.3 3.35706
29446.1 5.79497
29448.0 9.92066
29449.5 15.1305
29451.0 22.1923
29454.0 36.5386
29455.5 38.8651
29457.0 37.1797
29460.0 29.1730
29462.0 24.3894
29463.9 20.6276
29467.8 15.5736
29471.7 12.5283
29475.5 10.5771
29479.4 9.23920
29483.3 8.27872
29491.0 6.99950
29498.8 6.19127
29506.5 5.63679
29522.0 4.92592
29537.5 4.48819
29553.0 4.19167
29584.0 3.81974
29646.0 3.50545
29708.0 3.55073
29769.9 4.00756
29831.9 5.14193
29893.9 7.53684
29924.9 9.53948
29940.4 10.8315
29948.1 11.5648
29952.0 11.9568
29954.0 12.1681
29954.9 12.3064
29955.4 12.4668
29955.6 12.7512
29955.9 14.4715
29956.0 16.6210
29956.1 14.5252
29956.3 12.9137
29956.5 12.6430
29956.9 12.5460
29957.7 12.5829
29959.4 12.7458
29962.6 13.1064
29969.1 13.8747
29982.0 15.5760
30021.3 22.2358
30060.5 31.2244
30139.0 49.5381
30178.3 52.4902
30217.5 50.1431
30296.0 39.1864
30363.4 30.7514
30430.8 24.7214
30498.2 20.4981
30565.5 17.4611
30700.3 13.4363
30835.1 10.8464
30969.8 8.94237
31037.2 8.13526
31104.6 7.40579
31172.0 6.79595
31239.3 6.52136
31273.0 6.74144
31306.7 7.57497
31340.4 9.79755
31374.1 15.2104
31408.1 26.7390
31442.0 40.4430
31476.0 41.0738
31509.9 32.9870
31533.9 27.6898
31557.9 23.6310
31581.9 20.6076
31605.8 18.3346
31653.8 15.2164
31701.8 13.2055
31749.7 11.8015
31797.7 10.7685
31821.7 10.3630
31833.7 10.1944
31845.7 10.0630
31857.6 10.0064
31863.6 10.0392
31869.6 10.1623
31875.6 10.4861
31878.6 10.8098
31881.6 11.3551
31884.6 12.3439
31887.6 14.3252
31889.1 16.1061
31890.6 18.9281
31892.1 23.5964
31893.6 31.3635
31895.3 44.8238
31897.0 53.8683
31898.7 45.0725
31900.4 31.7335
31902.0 23.2601
31903.7 18.4343
31905.3 15.5929
31907.0 13.8245
31910.3 11.8550
31913.5 10.8503
31916.8 10.2612
31920.1 9.88221
31926.7 9.42269
31933.2 9.14726
31939.8 8.95523
31952.9 8.68319
31966.1 8.47781
31979.2 8.30316
32005.5 7.99836
32058.0 7.46981
32110.6 6.99246
32320.7 5.21012
32425.8 4.24830
32478.3 3.72528
32530.9 3.18454
32583.4 2.68665
32635.9 2.46981
32662.2 2.69697
32688.5 3.48007
32714.7 5.40988
32727.9 7.13458
32741.0 9.62791
32758.5 14.5146
32776.0 21.3190
32793.5 29.0258
32811.0 35.1001
32846.0 36.0440
32881.0 29.2848
32906.0 24.6551
32931.1 20.9664
32956.1 18.0852
32981.1 15.8041
33006.1 13.9833
33031.2 12.6898
33043.7 12.4460
33056.2 12.9043
33068.7 15.1704
33075.0 17.8494
33081.2 22.5061
33091.1 36.1350
33101.0 52.6851
33110.9 53.5875
33120.8 43.5258
33129.1 35.8343
33137.5 30.3157
33145.8 26.4404
33154.1 23.6625
33170.8 20.0187
33187.5 17.7591
33204.2 16.2160
33220.8 15.0850
33254.2 13.5089
33287.5 12.4331
33320.8 11.6307
33354.2 10.9982
33370.9 10.7371
33379.2 10.6582
33383.4 10.7735
33385.4 11.2941
33386.5 12.6198
33387.0 14.8880
33387.3 17.4401
33387.5 22.3597
33387.8 29.6289
33388.0 34.4535
33388.2 29.8011
33388.5 22.5459
33388.8 16.9565
33389.1 14.3413
33389.7 12.2232
33390.4 11.4311
33391.0 11.0646
33393.5 10.5885
33398.5 10.3782
33408.4 10.2039
33428.4 9.94302
33468.2 9.49741
33548.0 8.77134
33707.5 7.68482
33867.0 6.83850
34026.4 6.09556
34185.9 5.38709
34345.4 4.68626
34425.2 4.35395
34504.9 4.07770
34544.8 3.98981
34584.6 3.96969
34604.6 4.00225
34624.5 4.08723
34634.5 4.17082
34644.5 4.33675
34649.4 4.51510
34651.9 4.67025
34654.4 4.92400
34656.9 5.39360
34658.2 5.80127
34659.4 6.43558
34660.7 7.51952
34661.9 9.53555
34662.5 11.2811
34663.1 13.8774
34663.8 17.9120
34664.4 24.2107
34665.2 36.3217
34666.0 44.5405
34666.8 36.7460
34667.6 24.7711
34668.3 18.1468
34668.9 13.9957
34669.6 11.3756
34670.3 9.66322
34671.6 7.68041
34672.9 6.64697
34674.2 6.04204
34675.5 5.66721
34678.2 5.24990
34680.8 5.04592
34683.4 4.94064
34688.7 4.86567
34693.9 4.87453
34699.2 4.92430
34709.7 5.09303
34730.8 5.61906
34751.8 6.39375
34793.9 8.99776
34836.0 13.8968
34866.3 19.6124
34896.5 27.4607
34957.0 43.8757
35017.5 45.2847
35078.0 36.5690
35141.4 28.3862
35204.9 22.9343
35268.3 19.3547
35331.7 16.9098
35395.2 15.1612
35458.6 13.8588
35522.1 12.8538
35537.9 12.6379
35553.8 12.4347
35569.6 12.2524
35577.6 12.2126
35581.5 12.3697
35583.5 12.9778
35584.5 14.4481
35585.0 16.8518
35585.2 19.4154
35585.5 23.7185
35585.7 30.8589
35586.0 35.7588
35586.3 31.1459
35586.5 24.0910
35586.9 18.6574
35587.2 16.0307
35587.9 13.8679
35589.2 12.6935
35591.9 12.2080
35597.2 11.9985
35607.9 11.8376
35629.3 11.6056
35650.6 11.3984
35672.0 11.2056
35757.5 10.5405
35928.4 9.55841
36099.4 8.85911
36184.8 8.57935
36227.6 8.45918
36249.0 8.42390
36259.6 8.47930
36262.3 8.54977
36265.0 8.73808
36266.3 8.97177
36267.6 9.51324
36268.3 10.1057
36269.0 11.2872
36269.3 12.3810
36269.7 14.0954
36270.0 16.9961
36270.3 22.0239
36270.7 30.2558
36271.0 35.6334
36271.4 30.0853
36271.7 21.9307
36272.0 17.0316
36272.3 14.1363
36272.9 11.3319
36273.5 10.1120
36274.1 9.49095
36275.4 8.91327
36276.6 8.66780
36279.0 8.46532
36281.5 8.38462
36291.3 8.28505
36310.9 8.21678
36350.1 8.11443
36428.4 7.92915
36506.8 7.76097
36585.2 7.60918
36663.6 7.47706
36702.8 7.42274
36741.9 7.38394
36781.1 7.37992
36800.7 7.40804
36820.3 7.48257
36839.9 7.66341
36849.7 7.84228
36859.5 8.14736
36869.3 8.71316
36874.2 9.18789
36879.1 9.89859
36884.0 11.0219
36888.9 12.9042
36893.8 16.2689
36898.7 22.4826
36903.3 31.9170
36908.0 38.3421
36912.7 32.2458
36917.3 22.9012
36921.6 17.1979
36926.0 13.8473
36930.3 11.8391
36934.6 10.5743
36943.2 9.15591
36951.9 8.42836
36960.5 8.00530
36969.2 7.73637
36986.4 7.42138
37003.7 7.24436
37021.0 7.12967
37055.5 6.98244
37090.1 6.88130
37124.6 6.79454
37141.9 6.74871
37159.2 6.69119
37167.8 6.64949
37176.5 6.58177
37180.8 6.52253
37185.1 6.41511
37187.3 6.31648
37189.4 6.13793
37191.6 5.71764
37192.7 5.25050
37193.2 5.11093
37193.5 5.71480
37193.7 9.39158
37193.9 15.2881
37194.0 22.7395
37194.1 23.6542
37194.3 19.9239
37194.6 14.1016
37194.9 11.4109
37195.4 9.32395
37196.6 8.04677
37197.7 7.60024
37198.9 7.37516
37201.2 7.14895
37203.5 7.03507
37208.1 6.91782
37212.7 6.85625
37221.8 6.78825
37231.0 6.74792
37249.4 6.69518
37267.8 6.65678
37341.3 6.54261
37488.3 6.36205
37782.4 6.05632
38370.5 5.53900
38958.5 5.07259
39252.6 4.83234
39399.6 4.69343
39436.4 4.65027
39473.1 4.59485
39491.5 4.55528
39509.9 4.49273
39519.1 4.43910
39528.3 4.34252
39532.9 4.25324
39537.4 4.08879
39539.7 3.93829
39542.0 3.67485
39544.3 3.11516
39545.5 2.69370
39546.1 3.02391
39546.3 4.40552
39546.6 9.44802
39546.8 17.9040
39547.0 28.6645
39547.1 30.8129
39547.2 29.8245
39547.4 24.0419
39547.6 18.6607
39547.8 14.9889
39548.2 11.1312
39548.6 9.23615
39548.9 8.15330
39549.7 6.98204
39550.5 6.38505
39552.1 5.77830
39553.6 5.47697
39556.8 5.17534
39559.9 5.02452
39566.2 4.87190
39572.4 4.79339
39585.0 4.70938
39597.5 4.66163
39622.6 4.60192
39647.6 4.55973
39697.7 4.49148
39722.8 4.46009
39735.3 4.44517
39741.6 4.44183
39744.7 4.45921
39746.3 4.54119
39747.0 4.81176
39747.4 5.49299
39747.6 6.73923
39747.8 11.1160
39748.0 18.0196
39748.2 11.3293
39748.3 7.39256
39748.5 6.02715
39748.8 5.09705
39749.4 4.66014
39750.6 4.50063
39753.0 4.44738
39757.8 4.42611
39767.4 4.40944
39786.7 4.38410
39825.2 4.33524
39902.2 4.23148
39979.2 4.11183
40056.2 3.96404
40133.2 3.76355
40171.7 3.62752
40210.2 3.44968
40248.7 3.20213
40267.9 3.03734
40287.2 2.83391
40325.7 2.34417
40335.3 2.31375
40344.9 2.57009
40349.7 2.98725
40354.5 3.84888
40359.3 5.59845
40364.1 9.11339
40367.1 12.7471
40370.1 17.7381
40376.0 28.6771
40379.0 30.9577
40381.9 30.0891
40387.9 24.1737
40394.4 18.3053
40400.9 14.5360
40407.4 12.1514
40413.9 10.5721
40420.5 9.47212
40427.0 8.67135
40440.0 7.59570
40453.1 6.91297
40466.1 6.44338
40492.2 5.83960
40518.3 5.46550
40544.3 5.20747
40596.5 4.86398
40648.7 4.62991
40700.8 4.43687
40726.9 4.33776
40753.0 4.21483
40766.0 4.12658
40779.1 3.98550
40785.6 3.86542
40792.1 3.65758
40795.4 3.47921
40798.6 3.18915
40801.9 2.69551
40803.5 2.59215
40804.3 3.30422
40804.7 4.58059
40805.1 7.51096
40805.4 10.3543
40805.6 14.1444
40806.0 22.5770
40806.4 23.6987
40806.9 19.4036
40807.2 15.8668
40807.6 13.2716
40808.4 10.2348
40809.1 8.61908
40809.9 7.65446
40811.4 6.57955
40812.9 6.01229
40815.9 5.42581
40818.9 5.12734
40824.9 4.82352
40830.9 4.66678
40843.0 4.49927
40855.0 4.40468
40879.1 4.28842
40903.1 4.20896
40951.2 4.08719
40999.4 3.98335
41095.6 3.78543
41191.9 3.56903
41288.1 3.29682
41336.3 3.12037
41384.4 2.89779
41432.5 2.60392
41456.6 2.42052
41480.7 2.21230
41504.7 2.00187
41516.8 1.92576
41528.8 1.92016
41540.8 2.09479
41552.8 2.74099
41558.9 3.46328
41564.9 4.71379
41570.9 6.89521
41576.9 10.6774
41581.4 15.1512
41586.0 21.2993
41595.0 34.9820
41599.5 37.9276
41604.1 36.8117
41613.1 29.0656
41623.7 21.0445
41634.3 16.1340
41644.9 13.1402
41655.5 11.2116
41666.1 9.89209
41676.7 8.94553
41697.9 7.69102
41719.0 6.90429
41740.2 6.36737
41782.6 5.68158
41825.0 5.25862
41867.4 4.96788
41952.1 4.58369
42036.8 4.32965
42121.6 4.13958
42291.1 3.85232
42630.1 3.41159
42799.6 3.18792
42842.0 3.11772
42884.3 3.02433
42905.5 2.95503
42926.7 2.84275
42937.3 2.74608
42947.9 2.57651
42953.2 2.42776
42958.5 2.17825
42961.1 1.98062
42963.8 1.71052
42966.4 1.54338
42967.1 1.71700
42967.7 2.29957
42968.4 4.05490
42968.7 6.01548
42969.1 9.56268
42969.3 13.4776
42969.5 18.7411
42970.0 30.7357
42970.2 33.3243
42970.5 32.2346
42970.9 25.2270
42971.4 19.3249
42971.8 15.2567
42972.2 12.5624
42972.6 10.7622
42973.5 8.50948
42974.3 7.21636
42976.0 5.83296
42977.7 5.12149
42979.5 4.69156
42981.2 4.40800
42984.6 4.05584
42988.0 3.84546
42991.4 3.70601
42998.2 3.53095
43005.0 3.42405
43011.8 3.35089
43025.4 3.25460
43039.0 3.19117
43052.6 3.14406
43079.9 3.07397
43134.3 2.97343
43188.8 2.89200
43406.6 2.60415
43624.5 2.30531
43678.9 2.22206
43733.4 2.12937
43760.6 2.07492
43787.8 2.00580
43801.5 1.95749
43815.1 1.88382
43821.9 1.82375
43828.7 1.72364
43835.5 1.51263
43838.9 1.33749
43840.6 1.48493
43841.4 2.28355
43841.9 3.60454
43842.3 6.82736
43842.7 12.6712
43843.0 19.8450
43843.2 21.2836
43843.4 20.4527
43843.7 15.6640
43844.0 11.9280
43844.3 9.41832
43845.0 6.59185
43845.6 5.20074
43846.2 4.42345
43847.5 3.58911
43848.7 3.16998
43851.2 2.75387
43853.7 2.54989
43858.8 2.34823
43863.8 2.24641
43873.8 2.13901
43883.9 2.07837
43903.9 2.00225
43924.0 1.94813
43964.2 1.86061
44004.3 1.78221
44164.9 1.47579
44325.5 1.14436
44486.1 0.779441
44646.7 0.403783
44727.0 0.244078
44767.2 0.186882
44807.3 0.157659
44847.5 0.172990
44867.5 0.205105
44887.6 0.259368
44907.7 0.341821
44927.8 0.460133
44967.9 0.848127
45008.1 1.54956
45048.2 2.79058
45088.4 4.99219
45128.5 8.98530
45160.5 14.6402
45176.4 19.0217
45192.4 25.2881
45227.0 48.3268
45242.5 53.1336
45258.0 49.4315
45261.6 48.2746
45269.5 45.9490
45277.3 44.0149
45293.1 41.0589
45324.6 36.3102
45387.5 26.8963
45446.8 19.9414
45506.1 15.2800
45565.4 12.2221
45624.8 10.2297
45684.1 9.03888
45743.4 8.62833
45802.7 9.25315
45862.0 11.5678
45939.5 18.7378
46017.0 28.2960
46094.5 29.5904
46172.0 24.3644
46220.6 21.0446
46269.2 18.3236
46317.7 16.1767
46329.9 15.7183
46342.0 15.2929
46354.2 14.9304
46360.2 14.8966
46361.8 14.9935
46363.3 15.2917
46364.0 15.6548
46364.8 16.4294
46365.6 18.4243
46365.9 20.6958
46366.3 24.9360
46366.7 31.1182
46367.0 35.4658
46367.4 31.2676
46367.7 24.9739
46368.1 20.5384
46368.5 18.2016
46369.2 16.1882
46370.0 15.3904
46370.8 14.9962
46372.3 14.6209
46373.9 14.4404
46380.1 14.1113
46392.4 13.7209
46404.8 13.3814
46417.1 13.0645
46466.5 11.9545
46516.0 11.0426
46540.7 10.6542
46553.0 10.5067
46559.2 10.5504
46562.3 10.9174
46563.8 11.9224
46564.6 13.7619
46565.0 16.0210
46565.4 20.4933
46565.7 26.6560
46566.0 30.7304
46566.3 26.7828
46566.6 20.4938
46566.9 16.9160
46567.2 14.7691
46567.7 12.5850
46568.8 11.1471
46571.0 10.4771
46575.4 10.2021
46584.1 10.0225
46601.6 9.77775
46636.6 9.34803
46706.6 8.60891
46741.6 8.29408
46776.5 8.03752
46794.0 7.96461
46802.8 7.96537
46811.5 8.02167
46820.3 8.20086
46824.6 8.38856
46829.0 8.71028
46833.4 9.29377
46837.8 10.4421
46840.0 11.4524
46842.1 13.0024
46844.3 15.4813
46846.5 19.4319
46849.3 26.8796
46852.0 31.9858
46854.8 27.2427
46857.5 19.9071
46859.3 16.5105
46861.1 14.1564
46864.7 11.3902
46868.2 9.94662
46871.8 9.11757
46875.4 8.59515
46879.0 8.24388
46886.1 7.80432
46893.3 7.53912
46900.4 7.35701
46914.7 7.10805
46929.0 6.92857
46943.3 6.77974
46971.9 6.52172
47029.1 6.05222
47086.3 5.57132
47143.5 5.02588
47172.1 4.71100
47200.7 4.36007
47229.3 3.98476
47243.6 3.81083
47257.9 3.68895
47272.2 3.71366
47286.5 4.13490
47300.8 5.66324
47308.0 7.39299
47315.1 10.3721
47321.1 14.3072
47327.1 19.8207
47339.0 32.2639
47351.0 34.5083
47362.9 28.4138
47374.3 22.7673
47385.7 18.8090
47397.1 16.1215
47408.5 14.2475
47431.3 11.8723
47454.1 10.4581
47476.9 9.52511
47499.7 8.86266
47545.3 7.97511
47591.0 7.39570
47636.6 6.97699
47682.2 6.65266
47705.0 6.51455
47716.4 6.45130
47722.1 6.42699
47724.9 6.44207
47726.4 6.54657
47727.1 6.87292
47727.4 7.61008
47727.8 11.6086
47728.0 17.0339
47728.2 11.7958
47728.5 8.30213
47728.7 7.32015
47729.2 6.73761
47730.2 6.49546
47732.1 6.40468
47736.0 6.35939
47743.8 6.31227
47759.3 6.23429
47790.4 6.09349
47852.5 5.84787
47914.7 5.63632
47945.8 5.54003
47961.3 5.49384
47969.1 5.47178
47973.0 5.46462
47974.9 5.47744
47975.9 5.54248
47976.4 5.74711
47976.6 6.19278
47976.9 8.79949
47977.0 12.2733
47977.1 8.92422
47977.3 6.53812
47977.5 5.95984
47977.9 5.63523
47978.6 5.50607
47980.1 5.46007
47983.0 5.43862
47988.9 5.41790
48000.7 5.38385
48024.3 5.31976
48071.5 5.19871
48165.8 4.97719
48354.5 4.59047
48731.9 3.93481
49109.3 3.33018
49298.0 3.01688
49392.4 2.84430
49439.5 2.73612
49463.1 2.64325
49474.9 2.52599
49480.8 2.34653
49483.8 2.08673
49485.2 1.82759
49486.0 1.87223
49486.3 2.62812
49486.5 3.94547
49486.7 7.42964
49486.9 13.6272
49487.0 21.7930
49487.2 22.7092
49487.3 17.7764
49487.5 11.9310
49487.7 8.87026
49488.1 6.16182
49489.0 4.42391
49490.7 3.52714
49494.1 3.09284
49500.9 2.87652
49514.5 2.75316
49541.6 2.65531
49595.9 2.53201
49623.1 2.47936
49650.3 2.43759
49663.9 2.43154
49677.4 2.46799
49684.2 2.54185
49691.0 2.75690
49694.4 3.02805
49697.8 3.64586
49699.5 4.28792
49701.2 5.47667
49702.1 6.46964
49702.9 7.93742
49703.8 10.1598
49704.6 13.4768
49705.8 20.4340
49707.0 25.1727
49708.2 20.7738
49709.4 14.0140
49710.6 9.78345
49711.7 7.31505
49712.8 5.84378
49714.0 4.92710
49716.2 3.89526
49718.5 3.36664
49723.0 2.86705
49727.6 2.64271
49736.7 2.44272
49745.7 2.35002
49763.9 2.25169
49782.1 2.18852
49818.4 2.08853
49854.7 1.99739
50000.0 1.62155
50094.4 1.34311
50188.8 1.02427
50283.2 0.665900
50330.4 0.493229
50354.0 0.424914
50365.8 0.404924
50371.7 0.425275
50374.7 0.548378
50376.2 0.972111
50376.9 2.02995
50377.3 3.81396
50377.6 9.13635
50378.0 18.3832
50378.2 15.1010
50378.4 9.65944
50378.6 5.45108
50378.9 3.39438
50379.4 1.79276
50380.3 0.922051
50382.3 0.575123
50386.3 0.457609
50394.2 0.427235
50410.0 0.467211
50425.8 0.587896
50441.6 0.824692
50457.4 1.25083
50473.2 1.99334
50489.0 3.27395
50504.8 5.45405
50517.6 8.21966
50530.4 12.0902
50556.0 21.0629
50568.8 23.2634
50581.6 22.8349
50607.2 18.0845
50629.1 14.0778
50651.0 11.1860
50672.9 9.17856
50694.8 7.75989
50738.6 5.94931
50782.3 4.87720
50869.9 3.73388
50913.7 3.44730
50924.6 3.40960
50935.6 3.41380
50941.1 3.46460
50946.5 3.63717
50949.3 3.86876
50952.0 4.42566
50953.4 5.03923
50954.7 6.25688
50955.4 7.35973
50956.1 9.08499
50956.8 11.9401
50957.5 16.7714
50958.2 25.0806
50959.0 30.8488
50959.8 25.5393
50960.5 17.3221
50961.1 12.9528
50961.7 10.1534
50962.3 8.34150
50962.9 7.13247
50964.1 5.69929
50965.3 4.92673
50967.6 4.17149
50970.0 3.82771
50974.7 3.52899
50979.4 3.40306
50988.9 3.29650
50998.3 3.25288
51036.1 3.24131
51111.6 3.60012
51187.2 4.56967
51224.9 5.39653
51243.8 5.92546
51253.2 6.22633
51258.0 6.40155
51260.3 6.55426
51261.5 6.82475
51262.1 7.38798
51262.4 8.28733
51262.7 10.8556
51263.0 15.4391
51263.3 11.1349
51263.6 8.45278
51263.9 7.56426
51264.6 7.01349
51265.8 6.80118
51268.3 6.79975
51273.2 6.95742
51283.2 7.34719
51303.0 8.24378
51360.3 11.7126
51417.5 16.6347
51532.0 28.0030
51589.3 30.7439
51646.5 30.2233
51761.0 24.3789
51844.3 20.0243
51927.7 16.6209
52011.0 14.0648
52094.3 12.1276
52261.0 9.41360
52427.7 7.55255
52594.3 6.06954
52761.0 4.62021
52844.3 3.75637
52886.0 3.23675
52927.6 2.62023
52969.3 1.86530
53011.0 0.955483
53031.8 0.503393
53042.2 0.330557
53052.6 0.252523
53057.9 0.275752
53063.1 0.363081
53068.3 0.539338
53073.5 0.837657
53078.7 1.30484
53083.9 2.00113
53089.1 3.00455
53094.3 4.40650
53103.2 8.03482
53112.2 13.4148
53121.1 19.8995
53130.0 25.4720
53138.9 28.2337
53147.9 28.1290
53165.7 24.0957
53178.2 21.0190
53190.7 18.4803
53215.8 14.9094
53240.8 12.6570
53265.9 11.1487
53315.9 9.28121
53366.0 8.17940
53466.1 6.97530
53516.2 6.65375
53541.3 6.55123
53553.8 6.53958
53560.0 6.64189
53563.2 7.02760
53564.7 8.00947
53565.5 9.71627
53565.9 11.6633
53566.3 15.3875
53566.6 20.8633
53567.0 24.6917
53567.4 21.1797
53567.7 15.7705
53568.3 11.0323
53568.8 9.01825
53569.9 7.57327
53572.2 6.85659
53576.6 6.58172
53585.5 6.48235
53603.3 6.44385
53638.8 6.47285
53709.9 6.84521
53780.9 7.80829
53852.0 9.74599
53960.0 15.7354
54068.0 24.0398
54176.0 25.7357
54284.0 21.2482
54351.1 18.3326
54418.2 15.9530
54552.5 12.6391
54686.7 10.5655
54820.9 9.17082
54955.2 8.16145
55089.4 7.38243
55357.9 6.20021
55626.3 5.24245
55894.8 4.29817
56029.0 3.77359
56163.2 3.21303
56230.4 2.97278
56297.5 2.91030
56364.6 3.51005
56398.2 4.50659
56431.7 6.54712
56456.0 9.08980
56480.4 12.7568
56529.0 21.2713
56577.7 23.2874
56626.3 19.7455
56659.7 17.1189
56693.1 14.9835
56709.8 14.1039
56726.5 13.3401
56734.8 13.0051
56743.2 12.7234
56747.4 12.6318
56751.5 12.6537
56753.6 12.7967
56755.7 13.2341
56756.7 13.7607
56757.8 14.8334
56758.3 15.8130
56758.8 17.3854
56759.3 20.0280
56759.9 24.5615
56760.4 32.2030
56761.0 37.5205
56761.6 32.6222
56762.1 24.9698
56762.8 19.4917
56763.5 16.6071
56764.1 15.0387
56764.8 14.1240
56766.1 13.1366
56767.4 12.6409
56770.0 12.1540
56772.6 11.9030
56777.9 11.6062
56783.1 11.3992
56793.6 11.0662
56804.1 10.7789
56825.1 10.2763
56846.1 9.84104
56930.0 8.53797
57097.8 7.02630
57265.6 6.13337
57349.6 5.79567
57391.5 5.64559
57412.5 5.58205
57423.0 5.58405
57428.2 5.70602
57430.8 6.14740
57432.2 7.30045
57432.8 9.44163
57433.1 12.0577
57433.5 17.2633
57433.7 24.3724
57434.0 29.4153
57434.3 24.7653
57434.5 17.6314
57434.8 12.5385
57435.2 9.85064
57435.8 7.57740
57437.0 6.26479
57439.5 5.72720
57444.4 5.53799
57454.2 5.45490
57473.8 5.37759
57513.1 5.25221
57591.7 5.02268
57748.9 4.60535
57827.4 4.41143
57906.0 4.23192
57945.3 4.15845
57965.0 4.13417
57984.6 4.13023
58004.2 4.17543
58014.1 4.24108
58023.9 4.37183
58033.7 4.64588
58038.6 4.89569
58043.5 5.29673
58048.4 5.98412
58053.4 7.27097
58055.8 8.35744
58058.3 9.96770
58060.7 12.4358
58063.2 16.1927
58066.6 23.8875
58070.0 29.2118
58073.4 24.3810
58076.8 16.8387
58080.4 11.7178
58084.1 8.90764
58087.7 7.30967
58091.3 6.34083
58094.9 5.71204
58098.5 5.28315
58105.7 4.75168
58112.9 4.44332
58120.1 4.24570
58134.6 4.00711
58149.0 3.86479
58163.4 3.76550
58192.3 3.62365
58221.1 3.51431
58250.0 3.41833
58278.9 3.32839
58293.3 3.28501
58300.5 3.26762
58304.1 3.27917
58305.9 3.35957
58306.8 3.61244
58307.3 4.16040
58307.7 6.91301
58308.0 10.7863
58308.3 7.12364
58308.9 4.03000
58309.5 3.55243
58310.7 3.34319
58313.1 3.26390
58317.9 3.22612
58327.4 3.19009
58346.6 3.13111
58384.9 3.01786
58461.5 2.79097
58614.8 2.32665
58768.1 1.90704
58844.7 1.80179
58883.0 1.81891
58902.2 1.86099
58911.7 1.92495
58916.5 2.10211
58918.9 2.63369
58920.1 3.86664
58920.7 5.78144
58921.0 7.73759
58921.3 11.0315
58921.7 16.8128
58922.0 20.8411
58922.3 17.3194
58922.7 11.7358
58923.0 8.35298
58923.3 6.32218
58923.9 4.32256
58925.1 2.96346
58927.6 2.33361
58932.5 2.11652
58942.3 2.09030
58962.0 2.20934
59001.2 2.67464
59040.5 3.49774
59079.8 4.85367
59123.4 7.24758
59166.9 10.7692
59254.0 18.9828
59297.6 21.0361
59341.1 20.9804
59428.2 17.7891
59505.1 14.7388
59582.1 12.3690
59659.0 10.5846
59735.9 9.19379
59812.8 8.05012
59889.8 7.08729
59928.2 6.71808
59966.7 6.58664
59985.9 6.74952
60005.1 7.26368
60024.4 8.48914
60043.6 11.1692
60066.8 18.0624
60090.0 27.9135
60101.6 30.5926
60113.2 30.3951
60136.4 25.4368
60150.9 22.1334
60165.3 19.4489
60194.3 15.7540
60223.2 13.4902
60252.1 12.0077
60310.0 10.2001
60367.8 9.12548
60425.6 8.39289
60483.5 7.84521
60512.4 7.61552
60541.3 7.40740
60570.3 7.21993
60584.7 7.15616
60591.9 7.23246
60595.6 7.62737
60597.4 8.69448
60598.3 10.5811
60598.7 12.7565
60599.2 17.0153
60599.6 23.2813
60600.0 27.6254
60600.4 23.7654
60600.8 17.6481
60601.2 14.0681
60601.5 11.8746
60602.3 9.67196
60603.7 8.15115
60605.1 7.64497
60606.5 7.41401
60612.2 7.11210
60623.6 6.95799
60646.3 6.80442
60691.8 6.56182
60782.8 6.13466
60873.8 5.73641
60964.7 5.33463
61055.7 4.89424
61101.2 4.64510
61146.7 4.36678
61192.2 4.05288
61237.7 3.71128
61260.4 3.54971
61283.2 3.43329
61305.9 3.45077
61317.3 3.57632
61323.0 3.70761
61325.8 3.86411
61327.2 4.17967
61327.9 4.86827
61328.3 6.00555
61328.6 9.38346
61329.0 15.2564
61329.4 9.72038
61329.7 6.64794
61330.0 5.39906
61330.5 4.55767
61331.7 4.18467
61334.1 4.12876
61338.9 4.31748
61348.4 5.00092
61357.9 6.12625
61367.4 7.90905
61377.3 10.7713
61387.2 14.9021
61407.0 24.8374
61426.8 27.4816
61446.6 23.1688
61463.0 19.3528
61479.5 16.4696
61495.9 14.3957
61512.4 12.8893
61545.2 10.9050
61578.1 9.68341
61611.0 8.86310
61643.8 8.27445
61709.6 7.48051
61775.3 6.96048
61841.1 6.58450
61906.8 6.29266
61939.7 6.16771
61956.1 6.11088
61964.3 6.09517
61968.4 6.13921
61970.5 6.33357
61971.5 6.85848
61972.0 7.79289
61972.5 11.0221
61973.0 16.3181
61973.5 11.3470
61973.9 8.25170
61974.4 7.19264
61975.3 6.51622
61977.1 6.20717
61980.7 6.08657
61987.9 6.02718
62002.4 5.96968
62031.2 5.87893
62089.0 5.71857
62204.6 5.44035
62320.2 5.19387
62378.0 5.07813
62406.9 5.03289
62421.3 5.06410
62424.9 5.11791
62428.5 5.26988
62430.4 5.46047
62432.2 5.89435
62433.1 6.35242
62434.0 7.19960
62434.9 8.97746
62435.3 10.6087
62435.8 13.1795
62436.4 18.2365
62437.0 21.8373
62437.6 18.6064
62438.2 13.6155
62438.8 10.4918
62439.4 8.68794
62440.5 6.92038
62441.7 6.14804
62442.8 5.75631
62445.1 5.38548
62447.4 5.22115
62452.0 5.07712
62456.5 5.01354
62474.8 4.91535
62511.4 4.82065
62548.0 4.73885
62566.3 4.69851
62575.5 4.68295
62580.0 4.69891
62582.3 4.79484
62583.5 5.08623
62584.0 5.69209
62584.6 8.49267
62585.0 12.5822
62585.4 8.74880
62585.8 6.44248
62586.1 5.61124
62586.8 5.05620
62588.3 4.79486
62591.2 4.69407
62597.0 4.64952
62608.5 4.61265
62631.7 4.55521
62677.9 4.44101
62724.2 4.32162
62747.3 4.28353
62758.9 4.37409
62761.8 4.48512
62764.6 4.76721
62766.1 5.08817
62767.5 5.73492
62769.0 7.29058
62769.7 8.90554
62770.4 11.7200
62771.2 16.4477
62772.0 19.7871
62772.8 16.8456
62773.6 12.2481
62774.2 9.62681
62774.9 7.98252
62776.2 6.27421
62777.5 5.48969
62778.9 5.07284
62781.5 4.66642
62784.1 4.47906
62789.4 4.30719
62794.7 4.22535
62815.7 4.07679
62857.9 3.88427
62900.1 3.67667
62942.2 3.42376
62984.4 3.10301
63026.6 2.70806
63047.7 2.52186
63068.7 2.48136
63079.3 2.64214
63089.8 3.11373
63100.4 4.25623
63110.9 6.84121
63117.2 9.60281
63123.5 13.5858
63136.0 23.2469
63142.3 25.9141
63148.6 25.9265
63161.1 21.7814
63172.6 17.7447
63184.1 14.8102
63195.7 12.7767
63207.2 11.3414
63230.2 9.50757
63253.3 8.41260
63276.3 7.69317
63299.3 7.18665
63345.4 6.51954
63391.5 6.09648
63437.5 5.80019
63529.7 5.40169
63621.8 5.13285
63714.0 4.92468
63806.1 4.73025
63829.1 4.67061
63852.2 4.58874
63863.7 4.52537
63875.2 4.41879
63881.0 4.32481
63886.7 4.15743
63889.6 4.00967
63892.5 3.76008
63895.4 3.27969
63896.8 2.98652
63897.5 3.20716
63898.2 5.51962
63898.6 9.70028
63899.0 15.7121
63899.4 17.3590
63899.8 14.9861
63900.3 11.4555
63900.9 9.43012
63902.0 7.51581
63903.2 6.65531
63904.3 6.18627
63906.6 5.68901
63908.9 5.43269
63913.5 5.16895
63918.1 5.03372
63927.2 4.89223
63936.3 4.81574
63954.6 4.72777
63972.9 4.67268
64009.5 4.59604
64046.1 4.53699
64192.4 4.34980
64338.8 4.17064
64375.4 4.11406
64412.0 4.03599
64430.3 3.97552
64448.5 3.87369
64457.7 3.78335
64466.8 3.62076
64471.4 3.47428
64476.0 3.22006
64480.6 2.68920
64482.8 2.27172
64484.0 2.42632
64484.6 3.25947
64485.1 6.27783
64485.6 12.1221
64486.0 20.6936
64486.2 23.0521
64486.4 22.9941
64486.9 19.2214
64487.4 14.3422
64488.0 11.4178
64488.6 9.62952
64489.1 8.50631
64490.3 7.17960
64491.4 6.45157
64493.6 5.68022
64495.9 5.28380
64500.4 4.88268
64504.9 4.68032
64513.9 4.47479
64522.9 4.36885
64540.9 4.25566
64558.9 4.19169
64594.9 4.11283
64631.0 4.05857
64775.0 3.90374
65063.2 3.64671
65351.4 3.37162
65423.4 3.28876
65495.4 3.18839
65531.5 3.12288
65567.5 3.02961
65585.5 2.95708
65603.5 2.83692
65612.5 2.73347
65621.5 2.55583
65626.0 2.40621
65630.5 2.17090
65635.0 1.80634
65637.3 1.77484
65638.4 2.25754
65638.9 2.97500
65639.5 4.47324
65640.3 8.59321
65641.0 14.5514
65641.4 16.1913
65641.8 16.1593
65642.5 13.5874
65643.2 10.9930
65643.9 9.14782
65645.4 7.03916
65646.8 5.95044
65648.2 5.31050
65651.1 4.60751
65653.9 4.23503
65659.7 3.84995
65665.4 3.65257
65676.8 3.44777
65688.3 3.33834
65711.2 3.21419
65734.1 3.13658
65779.9 3.02524
65825.7 2.93225
65917.3 2.74939
66008.9 2.53976
66100.4 2.27559
66146.2 2.11371
66192.0 1.92963
66237.8 1.73602
66260.7 1.65378
66283.6 1.61219
66306.5 1.67552
66329.4 2.00571
66340.9 2.38703
66352.3 3.04196
66363.8 4.15299
66375.2 6.01380
66385.2 8.56215
66395.1 12.2259
66415.0 21.3280
66425.0 23.9827
66434.9 24.0262
66454.8 19.7857
66469.0 16.4792
66483.3 13.8907
66497.5 11.9697
66511.8 10.5435
66540.2 8.63436
66568.7 7.45047
66597.2 6.65853
66625.7 6.09591
66682.6 5.35274
66739.6 4.88303
66796.6 4.55664
66910.5 4.12405
67024.4 3.83956
67138.3 3.62878
67195.3 3.54006
67252.2 3.45896
67309.2 3.38370
67337.7 3.35054
67351.9 3.35233
67359.0 3.42962
67362.6 3.71575
67364.4 4.44051
67365.3 5.67379
67365.7 7.02300
67366.1 9.48829
67366.6 13.4019
67367.0 16.0757
67367.4 13.7347
67367.9 9.91103
67368.5 6.67746
67369.2 5.24263
67370.5 4.17286
67373.1 3.62904
67378.2 3.41310
67388.6 3.32990
67409.4 3.28253
67450.9 3.22814
67533.9 3.13730
67699.9 2.97306
67865.9 2.81866
67948.9 2.74242
67990.4 2.70674
68011.1 2.70757
68021.5 2.79095
68026.7 3.11364
68029.3 3.97565
68030.6 5.55947
68031.2 7.45531
68031.9 11.1749
68032.4 16.4819
68033.0 20.2444
68033.6 16.9407
68034.1 11.7462
68034.8 7.92933
68035.4 5.94900
68036.7 4.26265
68038.1 3.60305
68039.4 3.28674
68042.0 2.99960
68044.6 2.87591
68055.2 2.72486
68076.2 2.65915
68118.3 2.60512
68202.4 2.52233
68370.7 2.36023
68539.0 2.18346
68623.1 2.08213
68665.2 2.02542
68686.2 1.99984
68696.7 2.01584
68702.0 2.14092
68704.6 2.55666
68705.9 3.50201
68706.6 4.93945
68707.2 8.65282
68707.6 12.8576
68708.0 15.8139
68708.4 13.2345
68708.8 9.13282
68709.2 6.25465
68709.6 4.73761
68710.5 3.35210
68712.2 2.51863
68715.6 2.15214
68722.3 2.01186
68735.9 1.94557
68762.9 1.87990
68790.0 1.81645
68817.0 1.74071
68844.1 1.63949
68871.2 1.48320
68884.7 1.36191
68898.2 1.18610
68911.7 0.980801
68915.1 0.998052
68918.5 1.19562
68920.2 1.47310
68921.9 2.02812
68923.6 3.15513
68925.3 5.49462
68926.2 7.73819
68927.1 10.8864
68929.0 18.8227
68929.9 21.2176
68930.9 21.1091
68932.7 16.6807
68934.5 12.3930
68936.3 9.55885
68938.2 7.73446
68940.0 6.53230
68941.8 5.69398
68943.6 5.09115
68947.2 4.28941
68950.8 3.78690
68954.4 3.44662
68961.6 3.01878
68968.8 2.76093
68976.0 2.58862
68990.4 2.37027
69004.9 2.23468
69019.3 2.13974
69048.1 2.00930
69077.0 1.91746
69105.8 1.84421
69163.5 1.72394
69278.9 1.51965
69394.3 1.32143
69509.8 1.11146
69625.2 0.882367
69682.9 0.762128
69740.6 0.650412
69769.4 0.615751
69783.8 0.616579
69798.3 0.646699
69812.7 0.743588
69819.9 0.845600
69827.1 1.01990
69834.3 1.33170
69841.5 1.92968
69845.1 2.44061
69848.7 3.20757
69852.4 4.40914
69856.0 6.34807
69861.0 11.2632
69866.0 18.8914
69868.5 21.4603
69871.0 21.0927
69876.1 14.6991
69881.4 8.81050
69886.8 5.64022
69892.2 3.93467
69897.6 2.94462
69902.9 2.32195
69908.3 1.90561
69919.1 1.39782
69929.8 1.10696
69940.6 0.922296
69962.1 0.706045
69983.6 0.590990
70005.1 0.531565
70048.1 0.534658
70091.2 0.720209
70112.7 0.911810
70134.2 1.19927
70155.7 1.61724
70177.2 2.21399
70198.7 3.05511
70220.2 4.22499
70250.7 6.64024
70281.1 10.1461
70342.0 18.8905
70372.5 21.4806
70402.9 21.6339
70463.8 17.8423
70511.8 14.5084
70559.7 11.9317
70607.6 10.0477
70655.6 8.66361
70751.5 6.82145
70847.4 5.67608
71039.1 4.34725
71230.9 3.62003
71422.7 3.23145
71614.5 3.19700
71710.3 3.39664
71806.2 3.85850
71902.1 4.77230
71998.0 6.48870
72112.5 10.3699
72227.0 16.2526
72284.3 18.2951
72341.5 17.8949
72398.8 14.6799
72456.0 9.77073
72516.5 4.55598
72546.8 2.71837
72561.9 2.22872
72577.0 2.15620
72592.3 2.60714
72607.5 3.65558
72638.0 7.42201
72699.0 15.8991
72760.0 18.1769
72821.0 16.8985
72947.9 13.1656
73074.8 10.5656
73201.7 8.84480
73328.6 7.64458
73582.4 6.08145
73836.2 5.08724
74090.0 4.36772
74343.8 3.78346
74597.6 3.23457
74724.5 2.92560
74788.0 2.74338
74819.7 2.65119
74835.6 2.65843
74839.5 2.70947
74843.5 2.86422
74845.5 3.06030
74847.5 3.49837
74849.4 4.72759
74850.4 6.26609
74851.4 9.48884
74852.2 13.8879
74853.0 16.9641
74853.8 14.3055
74854.6 9.99787
74855.4 7.11665
74856.2 5.50408
74857.9 4.02523
74859.6 3.40933
74861.2 3.10129
74864.5 2.80915
74867.8 2.67430
74881.1 2.47257
74907.5 2.29292
74934.0 2.12489
74960.4 1.92972
74986.9 1.69285
75013.4 1.42092
75026.6 1.30803
75039.8 1.31054
75046.4 1.43526
75053.0 1.74904
75059.7 2.43277
75066.3 3.82619
75071.0 5.53997
75075.6 8.06038
75085.0 14.4507
75089.7 16.4037
75094.4 16.6207
75103.7 14.1227
75111.2 11.8296
75118.6 10.0441
75126.1 8.73265
75133.5 7.76629
75148.4 6.47794
75163.3 5.67878
75178.2 5.14037
75193.0 4.75453
75222.8 4.23616
75252.6 3.89981
75282.4 3.65933
75341.9 3.32670
75401.4 3.09444
75461.0 2.91247
75580.0 2.62110
75818.2 2.11872
75877.7 1.97565
75937.2 1.79428
75967.0 1.66839
75996.8 1.48426
76011.7 1.34765
76026.6 1.15803
76041.4 0.957673
76045.2 0.986018
76048.9 1.19551
76050.7 1.46804
76052.6 1.98429
76054.5 2.96914
76056.3 4.86988
76057.5 6.89076
76058.7 9.76684
76061.0 17.2408
76062.2 19.6616
76063.4 19.7644
76065.7 15.8288
76067.6 12.3840
76069.5 9.89993
76071.4 8.18248
76073.4 6.99071
76077.2 5.49279
76081.0 4.62430
76084.8 4.06677
76088.7 3.68418
76096.3 3.19481
76104.0 2.89604
76111.6 2.69453
76126.9 2.43657
76142.2 2.27438
76157.5 2.15964
76188.1 2.00062
76218.7 1.89028
76249.3 1.81460
76264.7 1.79962
76280.0 1.83698
76287.6 1.91987
76295.3 2.15724
76299.1 2.44535
76302.9 3.06572
76304.8 3.67136
76306.7 4.70543
76308.6 6.61043
76310.6 10.2794
76312.3 15.7207
76314.0 19.5470
76315.7 16.2118
76317.5 10.9066
76318.6 8.37830
76319.8 6.64089
76322.1 4.62094
76324.4 3.58777
76326.6 3.00446
76331.2 2.40478
76335.8 2.11767
76345.0 1.85312
76354.2 1.73060
76372.5 1.60731
76390.9 1.53562
76427.6 1.43512
76464.3 1.35363
76537.8 1.21008
76611.2 1.08156
76684.7 0.971594
76758.1 0.901286
76794.8 0.902250
76831.6 0.971150
76849.9 1.07174
76868.3 1.29920
76877.5 1.52927
76886.6 1.95143
76891.2 2.30841
76895.8 2.85353
76900.4 3.73879
76905.0 5.28022
76910.0 8.46072
76915.0 13.7255
76917.5 15.7495
76920.0 15.4425
76925.0 9.81357
76929.2 5.96230
76933.3 3.83441
76937.5 2.67965
76941.6 2.02026
76949.9 1.36372
76958.2 1.07754
76974.8 0.867970
76991.3 0.822003
77024.5 0.882844
77057.7 1.04749
77124.0 1.68561
77190.3 2.95462
77242.7 4.66799
77295.2 7.20102
77400.0 13.5636
77452.4 15.4959
77504.9 15.7553
77557.3 14.8433
77583.5 14.2146
77596.6 13.9192
77609.7 13.6974
77618.7 13.6598
77627.6 13.8797
77632.1 14.2218
77636.5 14.9181
77641.0 16.3615
77645.5 19.4067
77649.2 23.7835
77653.0 26.8513
77656.8 24.0338
77660.5 19.5895
77664.2 16.7167
77667.8 15.0169
77671.4 13.9704
77675.1 13.2811
77682.3 12.4320
77689.6 11.9113
77704.1 11.2395
77718.6 10.7600
77747.7 10.0073
77776.7 9.38309
77834.8 8.35017
77892.9 7.51613
77950.9 6.82378
78009.0 6.22894
78067.1 5.67030
78096.1 5.34613
78110.7 5.17384
78117.9 5.29362
78121.6 5.89624
78123.4 6.86484
78124.3 7.80396
78125.2 9.30908
78126.6 13.6722
78128.0 20.4473
78128.7 22.6907
78129.4 22.6118
78130.8 18.1619
78131.9 14.8224
78132.9 12.4657
78134.0 10.8477
78135.0 9.74228
78137.1 8.37131
78139.2 7.59375
78143.4 6.76688
78147.5 6.34479
78155.9 5.91233
78164.2 5.68172
78180.9 5.41347
78197.6 5.23872
78231.0 4.98336
78264.4 4.78008
78331.2 4.44226
78398.0 4.15655
78665.1 3.27908
78932.2 2.61510
79065.8 2.32558
79132.6 2.19142
79166.0 2.13476
79182.7 2.14842
79191.0 2.31260
79195.2 2.82321
79197.3 3.84764
79198.3 5.15837
79199.4 7.97829
79200.2 11.7822
79201.0 14.4644
79201.8 12.2190
79202.6 8.56008
79203.4 6.36705
79204.1 5.04169
79205.5 3.69051
79208.4 2.76851
79211.3 2.46101
79214.2 2.31979
79225.8 2.13340
79248.9 2.04020
79295.2 1.96304
79341.5 1.92501
79364.6 1.92020
79376.2 1.92288
79381.9 1.93101
79384.8 1.96115
79386.3 2.06775
79387.0 2.36113
79387.4 2.93152
79387.7 5.29269
79388.0 8.89900
79388.3 5.52710
79388.8 2.80787
79389.2 2.30445
79390.2 2.06643
79392.1 1.97903
79396.0 1.95286
79403.7 1.95130
79419.1 1.97094
79450.0 2.04866
79480.9 2.18718
79496.3 2.28680
79504.0 2.34664
79507.9 2.38783
79509.8 2.45133
79510.8 2.62000
79511.2 3.00479
79511.7 5.24936
79512.0 8.41221
79512.3 5.59197
79512.7 3.32222
79513.2 2.83856
79514.0 2.59894
79515.8 2.51729
79519.4 2.51794
79526.4 2.58341
79540.6 2.76211
79568.9 3.26527
79625.5 5.18539
79653.9 6.92047
79682.3 9.42920
79739.0 16.2777
79788.2 18.9449
79837.4 17.7072
79852.5 19.3624
79874.0 24.5870
79892.3 25.3605
79910.6 21.9858
79939.5 16.7349
79968.3 13.3708
79997.1 11.1743
80026.0 9.63867
80083.7 7.63374
80141.3 6.38157
80256.7 4.89635
80372.1 4.03139
80487.4 3.44934
80602.8 3.01747
80833.5 2.38524
81064.2 1.91281
81295.0 1.56189
81410.3 1.47913
81525.7 1.58212
81583.4 1.79858
81641.0 2.25394
81698.7 3.17589
81756.4 5.04042
81789.8 6.88133
81823.2 9.52883
81890.0 16.6774
81923.4 19.1830
81956.8 19.3921
82023.6 15.2071
82104.8 10.0817
82186.0 7.08652
82267.2 5.34834
82348.4 4.25228
82429.6 3.50149
82510.8 2.95171
82592.0 2.53073
82632.6 2.35832
82652.9 2.28417
82663.1 2.26828
82668.2 2.34082
82670.7 2.62487
82672.0 3.29449
82672.6 4.30149
82673.2 6.94865
82674.0 12.1397
82674.8 7.40853
82675.5 4.45048
82676.2 3.39728
82677.7 2.70575
82680.6 2.38221
82686.5 2.24819
82698.3 2.17694
82721.8 2.11644
82745.3 2.09668
82768.8 2.13365
82792.3 2.28626
82804.1 2.45092
82815.8 2.73071
82827.6 3.22347
82839.4 4.14419
82851.1 6.01745
82857.0 7.66060
82862.9 10.0778
82871.9 15.5050
82881.0 19.3715
82890.1 16.0591
82899.1 10.7160
82907.8 7.32302
82916.5 5.33538
82925.1 4.13975
82933.8 3.38122
82951.1 2.51097
82968.4 2.04190
82985.7 1.75056
83003.0 1.54940
83037.6 1.27930
83072.2 1.09381
83106.8 0.949874
83176.1 0.733618
83245.3 0.606254
83279.9 0.594142
83314.5 0.641557
83349.2 0.785936
83383.8 1.09307
83418.4 1.67919
83453.0 2.74192
83481.5 4.18294
83510.0 6.31581
83567.0 11.9869
83595.5 13.8845
83624.0 14.1523
83681.0 11.6497
83721.7 9.54702
83762.3 7.87530
83843.6 5.70613
83924.9 4.49658
84006.3 3.82010
84087.6 3.51709
84168.9 3.59395
84250.2 4.23302
84331.5 5.92373
84375.6 7.61380
84419.8 10.0923
84508.0 16.9086
84552.1 19.3376
84596.3 19.5440
84684.5 15.4016
84722.0 13.3635
84740.7 12.4375
84750.1 12.0115
84754.8 11.8520
84757.1 11.9329
84758.3 12.3602
84758.9 13.1798
84759.4 15.8898
84760.0 20.5889
84760.6 16.2721
84761.3 13.1070
84762.0 12.2442
84763.5 11.7187
84766.4 11.4054
84772.2 11.0978
84783.7 10.6166
84806.9 9.77305
84853.3 8.38227
84946.0 6.43770
85038.7 5.18339
85131.5 4.32072
85316.9 3.21151
85409.6 2.82828
85456.0 2.66189
85479.2 2.58380
85490.7 2.55692
85496.5 2.60330
85499.4 2.83876
85500.9 3.48848
85501.6 4.64806
85502.3 8.64323
85503.0 15.4048
85503.7 9.27854
85504.2 5.64509
85504.8 4.23103
85506.0 3.25599
85508.3 2.78266
85512.9 2.58899
85522.2 2.49798
85540.7 2.42114
85577.7 2.30912
85651.8 2.11669
85799.9 1.79307
86096.1 1.29329
86392.4 0.902464
86466.4 0.810351
86540.5 0.712246
86614.5 0.591633
86651.6 0.519633
86670.1 0.552927
86674.7 0.629883
86679.3 0.836405
86681.7 1.06533
86684.0 1.49785
86686.3 2.40642
86687.4 3.24978
86688.6 4.58358
86689.4 6.09907
86690.3 8.21866
86692.0 14.1690
86692.9 16.3530
86693.7 16.2518
86695.4 11.4206
86696.5 8.57147
86697.5 6.50849
86699.5 4.08594
86701.6 2.85809
86703.7 2.16999
86707.8 1.45980
86711.9 1.11103
86720.1 0.765507
86728.3 0.575032
86744.8 0.306405
86753.0 0.314587
86757.1 0.691220
86759.1 1.31340
86761.2 2.79937
86762.2 4.09050
86763.1 5.93985
86765.0 10.9323
86766.0 12.6826
86766.9 12.8439
86768.8 10.1436
86770.1 8.05377
86771.5 6.46185
86774.1 4.49104
86776.8 3.42437
86779.4 2.79094
86784.8 2.09333
86790.1 1.72876
86800.7 1.35781
86811.3 1.17032
86832.6 0.977871
86853.8 0.876315
86896.3 0.764430
86938.8 0.699841
87023.9 0.624102
87108.9 0.583809
87278.9 0.573757
87448.9 0.661698
87618.9 0.883704
87789.0 1.30824
87959.0 2.05065
88129.0 3.29622
88278.3 5.01350
88427.5 7.50902
88726.0 14.2461
88824.5 16.0350
88873.8 16.6325
88898.4 16.8463
88910.7 16.9542
88916.8 17.1007
88919.9 17.4637
88921.5 18.2290
88922.2 19.3146
88923.0 21.9142
88924.0 27.3281
88924.5 25.4932
88925.0 22.4213
88925.7 19.8750
88926.4 18.7012
88927.9 17.7992
88930.8 17.3336
88936.5 17.1641
88948.0 17.1305
88971.1 17.1356
89017.1 17.0355
89109.3 16.3494
89201.4 15.2475
89224.4 14.9621
89247.5 14.7270
89259.0 14.6737
89270.5 14.7664
89276.3 14.9657
89282.0 15.4598
89284.9 15.9651
89287.8 16.8582
89290.7 18.5681
89292.1 20.0028
89293.5 22.0390
89298.0 29.8431
89299.1 29.0022
89300.2 26.6662
89302.5 21.4851
89305.0 17.8192
89307.6 15.9900
89310.2 15.0266
89312.7 14.4726
89317.9 13.8870
89323.0 13.5870
89333.8 13.2475
89344.5 13.0316
89366.0 12.6957
89387.5 12.4108
89409.0 12.1759
89430.5 12.0369
89452.1 12.1465
89462.8 12.4397
89473.6 13.1258
89484.3 14.7243
89489.7 16.2322
89495.1 18.5457
89503.0 23.6621
89511.0 27.2816
89519.0 24.2213
89526.9 19.3168
89532.4 16.8902
89537.8 15.1938
89548.7 13.1492
89559.6 12.0248
89570.5 11.3232
89581.3 10.8365
89592.2 10.4697
89614.0 9.92699
89657.5 9.17257
89701.0 8.59388
89788.1 7.65174
89875.1 6.87195
90049.2 5.63700
90092.7 5.38871
90136.2 5.17443
90157.9 5.09132
90179.7 5.05064
90190.6 5.07192
90201.5 5.17515
90206.9 5.30445
90212.3 5.56874
90217.8 6.20130
90220.5 6.89259
90223.2 8.24085
90224.4 9.25127
90225.6 10.6804
90228.0 14.9202
90229.2 16.6568
90230.4 16.3674
90232.8 11.4084
90235.0 8.06867
90237.1 6.43858
90239.3 5.63012
90241.4 5.19586
90245.7 4.78084
90250.1 4.60145
90258.7 4.44967
90267.3 4.37959
90301.8 4.22300
90370.8 3.96148
90439.9 3.71721
90508.9 3.49290
90785.0 2.78868
91061.1 2.35241
91199.1 2.22212
91268.2 2.17591
91302.7 2.15559
91319.9 2.14951
91328.6 2.17806
91332.9 2.32582
91335.0 2.78545
91336.1 3.73766
91336.7 5.00586
91337.2 7.78667
91338.0 14.1458
91338.8 8.50250
91339.6 4.98532
91340.3 3.69288
91341.8 2.82138
91344.8 2.40871
91350.9 2.24772
91362.9 2.18809
91387.0 2.17042
91411.2 2.22213
91417.2 2.28377
91423.2 2.44447
91426.2 2.63461
91429.3 3.04130
91432.3 4.11182
91433.8 5.36562
91435.3 7.77951
91436.6 11.3889
91438.0 13.9767
91439.4 11.8508
91440.7 8.34875
91442.2 5.87821
91443.7 4.54517
91446.8 3.35406
91449.8 2.87507
91452.8 2.63933
91458.8 2.42215
91464.9 2.32786
91476.9 2.24812
91489.0 2.21565
91537.3 2.18249
91585.6 2.18536
91609.7 2.22089
91621.8 2.38531
91624.8 2.54280
91627.8 2.91212
91629.3 3.30472
91630.8 4.04362
91632.3 5.59682
91633.1 7.00150
91633.8 9.13669
91634.9 13.7306
91636.0 17.0433
91637.1 14.4217
91638.2 10.1201
91639.6 6.74097
91640.9 5.06119
91642.3 4.15857
91643.7 3.63610
91646.4 3.08465
91649.2 2.81691
91654.7 2.57121
91660.2 2.46460
91671.2 2.37513
91682.1 2.34015
91726.1 2.31345
91814.0 2.33465
91843.8 2.34244
91873.5 2.36989
91888.4 2.42457
91903.2 2.59139
91910.7 2.79078
91918.1 3.18282
91925.5 4.01547
91933.0 5.93543
91939.5 9.70731
91946.0 15.9598
91949.3 18.3505
91952.5 18.6720
91959.0 14.8926
91964.4 11.5424
91969.8 9.24371
91975.1 7.75046
91980.5 6.75985
91991.3 5.59144
92002.0 4.96216
92012.7 4.58693
92023.5 4.34803
92044.9 4.08027
92066.4 3.95475
92087.9 3.90441
92109.3 3.93210
92120.1 4.10915
92125.4 4.61305
92128.1 5.58215
92129.5 6.79109
92130.8 9.32000
92131.9 12.8227
92133.0 15.3718
92134.1 13.3109
92135.2 9.96013
92136.8 7.04108
92138.5 5.74762
92141.7 4.76927
92145.0 4.42341
92148.2 4.26472
92154.7 4.13059
92161.2 4.08101
92187.2 4.06755
92213.2 4.12434
92239.2 4.20355
92343.2 4.63532
92551.2 5.91372
92759.2 7.95131
92863.2 9.58967
92967.2 12.2428
93049.1 15.7595
93131.0 21.0780
93172.0 24.0255
93223.2 26.7952
93274.4 27.4904
93376.8 24.1792
93464.7 20.8054
93552.5 18.4419
93728.2 15.6900
93903.9 13.9601
93991.7 13.2149
94035.6 12.8547
94057.6 12.6760
94068.6 12.5888
94074.0 12.5608
94076.8 12.6123
94078.2 12.8313
94078.9 13.3261
94079.5 15.6615
94080.0 19.1865
94080.5 16.0204
94081.2 13.5232
94081.9 12.9531
94083.3 12.6542
94086.2 12.5177
94092.0 12.4314
94103.4 12.3259
94126.4 12.1395
94172.4 11.7800
94264.2 11.0832
94448.0 9.79781
94718.4 8.47833
94853.6 8.45246
94988.8 9.51588
95117.9 12.6473
95247.0 18.1401
95311.6 20.0868
95376.1 19.9565
95440.7 17.7604
95472.9 16.1179
95505.2 14.1702
95522.3 12.9928
95539.3 11.7053
95556.4 10.4533
95565.0 10.0872
95573.5 10.3424
95586.2 13.3887
95592.6 16.2110
95599.0 18.8551
95611.8 20.7521
95624.5 19.6713
95633.8 18.5215
95643.2 17.4512
95661.8 15.7109
95680.4 14.3964
95699.0 13.3585
95736.3 11.7743
95773.6 10.5736
95848.1 8.78508
95922.6 7.46499
96071.6 5.57374
96220.6 4.23798
96518.7 2.40362
96593.2 2.05562
96667.7 1.74177
96742.2 1.46361
96779.5 1.36776
96788.8 1.37721
96798.1 1.46169
96802.8 1.59405
96807.4 1.92399
96809.8 2.28270
96812.1 2.96606
96814.4 4.42083
96815.6 5.75511
96816.7 7.80485
96818.4 12.1139
96820.0 15.2109
96821.6 12.7194
96823.3 8.63782
96824.5 6.50817
96825.7 5.09747
96828.0 3.50558
96830.4 2.70905
96832.8 2.26459
96837.6 1.80790
96842.3 1.58604
96851.9 1.37231
96861.4 1.26543
96880.5 1.14551
96899.5 1.06783
96937.7 0.953663
96975.8 0.865360
97052.1 0.741402
97128.3 0.692262
97204.6 0.749172
97280.9 0.994419
97319.0 1.25518
97357.1 1.71049
97376.2 2.07455
97395.3 2.60653
97414.3 3.43953
97433.4 4.86953
97442.8 5.98534
97452.2 7.55731
97461.6 9.76840
97471.0 12.6232
97480.4 15.1383
97489.8 14.6949
97499.2 10.6777
97508.6 6.37897
97514.7 4.37565
97520.9 2.98806
97527.0 2.05531
97533.2 1.43512
97539.3 1.02279
97545.4 0.750742
97557.7 0.462777
97570.0 0.365114
97582.3 0.365881
97606.8 0.509584
97655.9 1.02784
97705.0 1.70629
97799.0 3.44591
97954.0 7.85051
98109.0 13.3055
98311.0 17.6893
98513.0 18.8723
98557.2 19.0387
98601.4 19.2599
98623.5 19.4397
98645.6 19.7726
98656.6 20.0916
98667.7 20.6748
98673.2 21.1693
98678.7 21.9171
98684.2 23.0914
98689.8 24.9554
98696.9 28.5800
98704.0 31.2186
98711.1 29.1630
98718.2 25.7474
98725.7 23.4258
98733.1 22.1409
98740.5 21.4106
98747.9 20.9726
98762.8 20.5160
98777.6 20.3126
98807.3 20.1788
98837.0 20.1764
98905.9 20.2975
98974.9 20.4330
99112.7 20.5328
99250.6 20.2890
99319.6 20.0274
99354.0 19.8618
99371.3 19.7697
99379.9 19.7273
99384.2 19.7456
99386.3 19.9026
99387.4 20.3548
99388.0 21.1649
99388.5 23.7551
99389.0 28.3860
99389.5 24.3179
99390.3 21.0437
99391.1 20.3017
99392.7 19.9105
99395.9 19.7371
99402.3 19.6433
99415.2 19.5461
99440.8 19.3783
99492.1 19.0282
99594.8 18.2395
99800.0 16.4246
99875.0 15.8054
99999.9 14.7705
100000 16.9050
100170 15.2999
100210 13.0279
100260 12.3659
100300 13.7889
100340 14.0639
100390 15.8509
100430 12.5169
100470 12.6979
100520 9.77028
100560 13.0539
100610 9.73467
100650 10.5769
100690 11.1789
100740 13.1419
100780 17.2249
100820 20.0019
100870 21.1438
100910 18.9448
100960 15.5638
101000 16.8198
101040 15.8508
101090 15.7248
101130 12.1268
101180 12.2748
101220 12.4108
101270 11.2188
101310 12.5058
101350 11.8778
101400 10.6948
101440 12.2358
101490 10.7398
101530 12.5188
101580 10.3248
101620 8.08987
101660 9.38606
101710 6.44426
101750 8.01815
101800 5.79975
101840 7.03554
101890 8.56774
101930 7.01113
101980 7.60083
102020 8.86853
102070 10.9097
102110 14.6537
102160 17.0037
102200 19.5127
102250 17.7347
102290 17.6407
102340 19.5057
102380 18.6507
102430 15.4227
102470 16.2597
102520 14.3467
102560 14.2277
102610 13.1537
102650 12.9427
102700 13.4407
102740 12.7647
102790 10.8077
102830 10.3166
102880 11.7366
102920 10.8366
102970 11.3166
103010 12.2686
103060 10.4596
103100 12.7356
103150 12.9256
103190 10.8946
103240 9.02920
103290 10.4166
103330 9.90259
103380 8.75579
103420 9.52648
103470 10.0626
103510 8.23567
103560 8.57997
103610 8.53486
103650 8.19906
103700 7.18085
103740 7.82705
103790 8.65005
103830 6.79494
103880 6.53204
103930 8.35793
103970 7.77493
104020 7.93032
104060 8.02062
104110 7.74941
104160 8.03701
104200 6.49630
104250 9.84890
104300 8.14209
104340 7.93009
104390 6.60818
104430 5.86198
104480 7.30368
104530 6.09857
104570 8.04227
104620 8.83486
104670 7.05586
104710 6.19655
104760 5.87685
104810 7.14404
104850 4.68294
104900 5.36643
104950 5.57293
104990 6.58272
105040 5.37582
105090 4.99031
105130 4.69011
105180 4.23510
105230 5.39180
105270 4.57870
105320 1.72289
105370 3.71518
105410 4.21158
105460 2.92938
105510 4.11347
105550 2.78667
105600 1.90936
105650 1.94406
105700 4.26855
105740 2.90895
105790 2.98744
105840 5.74994
105880 10.6663
105930 14.0553
105980 13.3433
106030 13.4063
106070 13.0403
106120 10.8773
106170 10.7093
106220 7.44280
106260 8.20819
106310 4.98809
106360 4.50438
106410 5.82458
106450 5.29118
106500 5.06377
106550 4.35847
106600 4.63486
106650 3.04055
106690 3.13235
106740 2.38885
106790 3.64184
106840 2.56664
106880 2.08353
106930 2.31263
106980 6.91692
107030 10.0422
107080 14.7802
107130 14.4972
107170 15.1712
107220 13.6512
107270 12.8582
107320 12.1502
107370 10.1402
107410 9.60258
107460 8.03267
107510 9.00117
107560 9.02716
107610 7.89426
107660 7.98295
107700 8.48115
107750 6.61844
107800 6.33224
107850 5.31903
107900 6.45443
107950 6.51452
108000 6.92062
108050 5.74031
108090 6.35731
108140 6.02190
108190 5.86780
108240 5.02319
108290 5.44319
108340 5.51028
108390 5.31698
108440 4.82357
108490 5.06327
108530 3.20446
108580 5.03466
108630 3.48605
108680 2.52565
108730 1.89224
108780 3.19964
108830 2.50843
108880 3.63323
108930 5.82252
108980 2.42042
109030 3.72151
109080 3.24521
109130 2.98600
109180 2.40640
109220 3.50829
109270 6.92139
109320 6.28018
109370 9.84848
109420 12.4730
109470 13.4110
109520 11.4990
109570 11.6590
109620 10.5050
109670 9.65995
109720 7.69544
109770 8.28274
109820 7.46163
109870 6.41223
109920 5.08122
109970 5.76652
110020 6.36481
110070 5.20011
110120 5.97180
110170 5.74390
110220 3.47119
110270 3.41919
110320 3.42978
110370 2.55478
110420 2.22777
110470 3.56087
110520 1.79596
110570 7.42586
110630 11.9859
110680 14.8658
110730 13.4718
110780 8.76844
110830 9.27103
110880 7.85253
110930 5.94942
110980 8.57841
111030 6.50901
111080 5.15150
111130 4.93640
111180 3.34869
111230 4.71279
111280 5.92238
111340 4.27288
111390 4.52027
111440 6.04977
111490 11.2088
111540 12.2218
111590 7.52905
111640 7.49705
111690 6.15194
111740 5.73174
111800 5.27243
111850 4.74193
111900 6.75512
111950 6.87942
112000 4.68571
112050 5.44111
112100 4.32740
112160 4.95450
112210 5.21589
112260 5.88408
112310 3.33638
112360 3.89677
112410 2.81897
112470 0.596593
112520 0.102220
112570 2.18195
112620 2.89535
112670 6.63784
112730 10.6416
112780 10.8196
112830 8.92683
112880 5.71612
112930 7.51502
112990 5.82551
113040 6.61131
113090 3.22390
113140 4.71960
113190 4.59109
113250 4.01078
113300 3.18248
113350 2.32437
113400 3.95207
113460 4.05546
113510 3.20046
113560 4.01315
113610 4.60955
113670 5.97464
113720 9.65704
113770 12.7925
113820 10.8525
113880 8.73162
113930 6.13592
113980 5.42511
114040 3.80260
114090 4.53240
114140 3.02589
114190 3.19509
114250 2.11978
114300 3.13648
114350 0.705802
114410 1.16577
114460 2.52106
114510 2.87676
114570 2.60765
114620 1.93725
114670 4.12994
114730 5.63363
114780 2.22693
114830 2.38032
114890 2.47422
114940 3.12621
114990 3.78281
115050 5.41410
115100 6.02880
115150 6.46649
115210 9.56589
115260 7.71828
115310 9.57158
115370 10.2964
115420 11.1944
115480 11.4474
115530 12.7374
115580 11.9984
115640 11.6363
115690 11.7443
115750 11.4603
115800 10.7183
115850 11.6843
115910 10.3743
115960 11.5103
116020 9.83080
116070 9.00830
116120 6.77129
116180 7.67649
116230 6.04258
116290 6.51498
116340 6.79367
116400 7.78756
116450 6.32956
116510 5.44805
116560 5.42555
116610 4.96414
116670 4.47764
116720 4.87243
116780 3.34553
116830 4.65552
116890 3.45241
116940 7.45381
117000 10.0682
117050 11.3332
117110 7.78979
117160 6.60199
117220 2.78478
117270 3.78248
117330 1.42027
117380 1.83806
117440 2.75026
117490 3.96625
117550 3.68565
117610 3.19684
117660 5.39794
117720 6.59413
117770 7.54043
117830 10.8801
117880 12.9911
117940 12.9281
117990 12.7731
118050 13.0141
118100 10.8981
118160 10.3331
118220 10.7591
118270 9.58787
118330 8.74027
118380 8.05966
118440 7.71856
118500 5.88815
118550 6.64865
118610 5.45534
118660 5.08143
118720 6.69713
118780 5.92102
118830 6.83472
118890 7.71041
118940 7.76651
119000 8.45470
119060 8.85659
119110 9.37209
119170 10.0300
119230 11.2100
119280 10.8860
119340 12.7130
119400 12.7010
119450 10.4070
119510 9.60985
119570 10.4019
119620 10.4979
119680 11.8429
119740 14.3979
119790 12.0079
119850 12.1929
119910 13.4219
119960 13.6189
120020 15.8449
120080 16.2209
120140 18.3699
120190 19.3339
120250 20.3749
120310 18.1189
120370 15.3669
120420 16.6599
120480 14.5019
120540 13.8598
120590 13.3698
120650 12.1978
120710 13.0048
120770 12.7438
120820 12.6148
120880 10.5018
120940 11.3198
121000 10.2448
121060 9.94939
121110 11.3938
121170 10.1298
121230 11.0928
121290 9.28807
121350 9.27646
121400 8.57406
121460 7.99115
121520 9.33424
121580 8.50384
121640 8.59223
121690 8.05383
121750 6.85332
121810 6.84321
121870 6.88971
121930 7.89130
121990 6.53620
122040 6.70849
122100 6.69679
122160 6.20658
122220 7.15997
122280 5.87017
122340 6.25686
122400 6.73065
122460 6.09315
122510 6.07064
122570 4.78604
122630 5.12343
122690 6.01523
122750 4.39172
122810 5.21601
122870 4.73751
122930 4.90640
122990 3.80369
123050 4.87319
123100 5.14468
123160 4.15908
123220 3.92597
123280 4.33887
123340 4.07766
123400 4.03955
123460 3.18875
123520 4.43154
123580 3.59223
123640 3.25213
123700 3.99922
123760 4.24842
123820 3.01601
123880 2.98740
123940 2.60110
124000 1.56049
124060 2.92999
124120 4.16418
124180 3.16877
124240 2.61907
124300 3.95856
124360 4.65266
124420 2.79495
124480 3.14644
124540 3.41224
124600 4.71683
124660 7.79433
124720 8.46892
124780 10.1854
124840 10.2074
124900 10.6244
124960 12.2384
125020 9.57699
125080 8.17388
125150 7.55248
125210 6.58507
125270 5.35156
125330 5.07536
125390 3.63595
125450 3.22894
125510 3.11294
125570 3.09163
125630 2.10803
125690 1.34012
125760 1.39661
125820 3.03571
125880 5.42060
125940 5.07420
126000 2.70779
126060 4.38598
126120 8.48278
126180 13.8253
126250 15.3583
126310 13.4623
126370 13.6423
126430 12.3862
126490 12.2032
126550 11.3832
126620 11.6322
126680 11.9282
126740 11.3602
126800 11.5662
126860 10.1022
126930 9.27899
126990 9.30319
127050 8.74728
127110 8.50528
127170 8.29027
127240 8.71606
127300 8.35596
127360 8.28515
127420 8.03494
127490 7.80674
127550 6.84913
127610 7.98073
127670 5.57152
127740 6.75321
127800 6.99141
127860 5.71800
127930 7.18469
127990 9.99539
128050 9.99098
128110 10.3551
128180 6.40507
128240 7.27686
128300 5.98716
128370 5.01195
128430 6.34884
128490 4.31834
128560 4.87363
128620 4.64432
128680 3.98142
128750 4.13011
128810 4.52790
128870 4.61430
128940 4.96019
129000 4.42188
129060 4.02588
129130 4.39067
129190 3.69596
129250 3.35586
129320 3.20775
129380 3.56795
129450 2.72494
129510 4.14063
129570 3.82013
129640 3.07142
129700 2.54891
129770 1.80271
129830 3.86540
129890 3.27149
129960 4.12299
130020 4.00498
130090 4.22837
130150 5.00987
130220 6.65296
130280 6.54145
130350 7.08775
130410 8.73324
130470 10.0858
130540 12.0218
130600 12.3348
130670 11.4098
130730 12.1088
130800 11.5768
130860 12.1848
130930 12.2978
130990 12.5238
131060 11.8548
131120 11.2228
131190 11.5358
131250 11.8578
131320 12.0748
131380 14.4537
131450 16.5967
131520 16.7687
131580 16.6487
131650 15.6487
131710 13.7207
131780 14.3117
131840 14.5707
131910 13.9797
131980 12.8667
132040 11.3447
132110 11.3037
132170 10.2747
132240 10.6347
132300 10.6927
132370 9.96124
132440 9.17293
132500 8.51473
132570 8.12502
132640 9.83561
132700 7.07071
132770 7.48290
132830 7.93879
132900 6.69439
132970 6.96138
133030 7.41307
133100 5.68587
133170 5.64286
133230 5.23615
133300 4.52235
133370 4.12174
133430 4.62813
133500 3.92673
133570 5.92132
133640 8.13731
133700 12.7705
133770 14.7865
133840 14.2695
133900 14.4335
133970 12.9265
134040 12.6185
134110 10.1515
134170 10.6515
134240 11.0225
134310 11.2724
134380 10.0614
134440 8.27843
134510 10.3624
134580 8.44192
134650 9.41451
134710 9.11140
134780 9.05730
134850 9.93609
134920 7.94488
134990 8.11918
135050 6.42657
135120 6.52216
135190 8.07836
135260 7.03035
135330 7.10764
135400 6.71363
135460 5.08963
135530 5.14812
135600 6.53061
135670 5.89151
135740 6.62960
135810 5.48979
135880 5.23869
135940 6.71748
136010 5.97467
136080 6.33856
136150 10.5053
136220 11.5333
136290 8.52774
136360 9.15244
136430 8.30553
136500 6.99892
136570 6.40891
136640 6.90641
136700 6.59980
136770 5.75909
136840 7.21489
136910 5.88608
136980 6.16957
137050 5.93987
137120 5.96736
137190 5.99405
137260 4.89704
137330 5.01014
137400 4.96593
137470 4.91782
137540 7.32742
137610 10.2341
137680 8.75210
137750 7.86100
137820 7.48209
137890 6.16658
137960 7.10487
138030 6.01247
138100 6.39356
138170 6.88065
138240 6.25875
138310 5.22064
138390 5.73293
138460 5.16432
138530 6.18952
138600 5.58331
138670 6.27060
138740 5.13099
138810 4.81279
138880 5.56548
138950 5.20107
139020 5.18397
139090 5.83926
139170 4.84815
139240 4.19534
139310 3.38054
139380 3.98423
139450 5.00962
139520 3.52772
139590 3.78661
139670 3.68770
139740 3.60189
139810 3.59179
139880 7.39268
139950 8.59347
140020 6.68536
140100 6.19066
140170 5.02195
140240 5.38004
140310 4.74274
140380 5.05783
140460 5.41652
140530 4.13051
140600 4.89921
140670 7.41140
140750 7.48959
140820 8.05238
140890 5.54548
140960 7.10407
141040 10.0968
141110 5.89405
141180 4.92595
141260 5.78584
141330 4.62513
141400 4.40562
141470 4.24662
141550 4.45231
141620 3.56850
141690 4.12509
141770 5.98939
141840 5.00688
141910 4.12367
141990 4.23886
142060 3.31616
142130 3.65195
142210 3.96234
142280 3.15233
142350 2.74483
142430 3.83442
142500 2.90671
142580 2.94730
142650 3.10760
142720 2.77979
142800 4.22308
142870 2.14517
142950 3.00417
143020 5.27856
143090 7.69105
143170 9.90054
143240 9.59544
143320 8.37443
143390 6.90672
143470 7.25721
143540 6.29451
143620 5.13180
143690 3.89189
143770 4.08248
143840 3.44278
143920 3.19237
143990 4.18466
144070 7.04695
144140 7.00875
144220 6.12464
144290 8.04213
144370 9.49612
144440 7.77362
144520 6.29021
144590 4.93000
144670 4.44439
144740 5.14878
144820 4.67288
144890 4.50497
144970 4.54046
145050 4.23595
145120 4.50705
145200 4.03644
145270 3.74763
145350 4.47112
145430 4.26131
145500 3.26141
145580 3.93320
145650 3.06249
145730 3.32118
145810 3.48928
145880 2.86207
145960 1.94486
146040 2.92035
146110 3.01045
146190 3.40304
146270 4.96033
146340 8.49202
146420 9.69001
146500 7.84341
146570 6.95650
146650 6.21989
146730 5.27088
146810 4.45837
146880 4.42897
146960 5.04776
147040 4.64595
147120 4.70834
147190 3.74114
147270 4.50283
147350 4.22752
147430 3.66161
147500 4.34570
147580 5.04020
147660 3.90259
147740 3.10308
147810 3.84877
147890 3.15746
147970 2.90056
148050 3.75075
148130 5.42474
148210 3.98783
148280 3.97773
148360 3.72942
148440 4.51721
148520 3.35420
148600 4.23339
148680 3.22378
148760 3.05528
148830 3.14837
148910 3.60086
148990 3.24185
149070 2.92614
149150 4.31904
149230 2.83963
149310 2.91352
149390 2.74041
149470 2.64190
149550 3.57510
149630 2.89749
149700 3.35098
149780 3.03037
149860 2.36326
149940 1.87746
150000 3.03625
150020 3.42265
150100 2.38955
150180 2.91304
150260 3.03494
150340 1.13063
150420 2.39553
150500 2.54112
150580 2.61272
150660 2.13201
150740 1.93571
150820 1.62231
150900 2.35010
150980 4.51200
151070 6.29319
151150 4.36629
151230 3.15328
151310 4.25508
151390 2.83068
151470 2.71357
151550 2.47467
151630 2.14226
151710 1.77036
151790 1.99305
151870 3.07955
151960 1.72494
152040 1.19854
152120 2.48474
152200 2.07693
152280 1.94163
152360 3.31302
152440 1.37402
152530 1.25111
152610 0.985749
152690 0.456754
152770 1.11290
152850 3.62150
152940 6.23359
153020 5.24059
153100 3.35518
153180 2.32898
153260 2.35117
153350 1.95207
153430 1.79626
153510 3.41636
153590 5.00946
153680 2.98945
153760 1.60335
153840 1.34194
153930 2.07074
154010 0.443063
154090 1.78813
154170 0.405564
154260 1.10592
154340 1.04512
154420 0.951060
154510 0.548796
154590 1.57470
154670 1.36970
154760 0.996312
154840 2.46649
154930 2.96718
155010 1.21168
155090 0.612304
155180 1.00100
155260 1.30397
155340 2.53606
155430 2.82626
155510 2.20705
155600 4.04015
155680 5.21224
155770 6.89624
155850 9.10473
155930 10.0865
156020 9.79362
156100 8.31342
156190 7.49872
156270 7.44861
156360 7.32711
156440 6.28440
156530 7.39830
156610 7.48489
156700 8.45389
156780 8.60018
156870 9.55958
156950 11.4535
157040 13.6955
157120 11.2835
157210 10.5895
157300 9.26235
157380 8.31025
157470 7.08875
157550 8.18344
157640 8.37704
157720 8.45193
157810 6.64633
157900 6.26242
157980 5.40432
158070 5.27851
158160 5.03551
158240 9.08280
158330 7.32190
158410 5.07999
158500 4.23509
158590 4.62748
158670 4.73438
158760 5.36068
158850 7.60507
158940 9.20777
159020 9.98856
159110 12.3784
159200 12.2984
159280 11.9774
159370 11.2223
159460 10.5563
159550 9.64173
159630 7.45483
159720 8.65952
159810 11.2303
159900 8.88811
159980 8.19301
160070 6.76470
160160 7.25460
160250 6.08099
160340 6.74899
160420 6.71489
160510 7.42168
160600 6.84668
160690 5.44337
160780 6.40327
160870 4.72506
160950 4.80026
161040 4.47445
161130 5.02875
161220 3.79934
161310 4.23614
161400 4.26693
161490 3.63033
161580 3.75752
161670 2.77142
161760 3.82691
161840 3.67571
161930 3.42570
162020 2.47100
162110 2.54609
162200 1.84149
162290 1.78208
162380 2.84678
162470 4.70107
162560 5.84927
162650 7.96236
162740 6.91246
162830 5.52126
162920 5.71015
163010 7.92905
163100 9.65084
163190 7.14414
163280 5.39923
163370 4.91853
163470 3.77912
163560 3.72972
163650 3.64421
163740 3.66861
163830 3.29630
163920 2.57130
164010 2.49479
164100 3.68179
164190 5.06168
164280 2.51778
164380 1.40217
164470 1.21447
164560 1.86326
164650 1.27466
164740 1.25785
164830 1.33305
164930 1.27384
165020 0.0925139
165110 1.25693
165200 1.02593
165290 1.32692
165390 2.22982
165480 3.47841
165570 3.98631
165660 6.78340
165760 9.70510
165850 11.7280
165940 13.4000
166030 15.9320
166130 14.7460
166220 12.1490
166310 11.3000
166410 10.1610
166500 9.10536
166590 8.81605
166690 7.93035
166780 7.39874
166870 6.56474
166970 7.33113
167060 5.81753
167150 6.15172
167250 5.02852
167340 4.27661
167440 4.11081
167530 4.27150
167620 4.02540
167720 3.95319
167810 3.36149
167910 3.46678
168000 3.09247
168100 2.48247
168190 2.77496
168290 1.83766
168380 0.968004
168480 1.59235
168570 0.869094
168670 0.335018
168760 1.10073
168860 2.12243
168950 4.54732
169050 7.08092
169140 7.11921
169240 7.58391
169330 7.28130
169430 9.30210
169520 13.2138
169620 12.5168
169720 11.5508
169810 9.81558
169910 8.53197
170000 7.49137
170100 5.46016
170200 5.35066
170290 5.77025
170390 5.78975
170490 3.45634
170580 2.89414
170680 3.54623
170780 4.91422
170870 6.46272
170970 9.23821
171070 9.28141
171170 8.92950
171260 8.00130
171360 7.55079
171460 7.30179
171550 5.82068
171650 4.68338
171750 4.41007
171850 6.45487
171950 9.45496
172040 8.99426
172140 7.83225
172240 8.61225
172310 6.70744
172360 6.98854
172410 5.10184
172460 5.12343
172510 5.06893
172560 5.01873
172610 4.75243
172660 4.10192
172710 6.00102
172760 5.70112
172810 4.69981
172850 4.79071
172900 4.32041
172950 4.01371
173000 4.36670
173050 3.82460
173100 4.05150
173150 3.75400
173200 4.23929
173250 2.80589
173300 2.69789
173350 3.92428
173400 3.89478
173450 5.02588
173500 3.54238
173550 4.28507
173600 3.53647
173650 3.51447
173700 2.93047
173750 2.36446
173800 3.20876
173840 2.55376
173890 3.55846
173940 2.37705
173990 2.97605
174040 2.24305
174090 2.08874
174140 1.81244
174190 2.31624
174240 1.62324
174290 2.01803
174340 3.82373
174390 6.84593
174440 7.76733
174490 8.17122
174540 7.14472
174590 4.68702
174640 4.50262
174690 4.63681
174740 3.33691
174790 3.25841
174840 3.77170
174890 2.89600
174940 3.92170
174990 5.01500
175040 6.63319
175100 5.62769
175150 3.83659
175200 2.95638
175250 3.19258
175300 2.92328
175350 2.66878
175400 3.17607
175450 2.77327
175500 2.19587
175550 3.17737
175600 1.93676
175650 2.65556
175700 3.57616
175750 2.84955
175800 2.78685
175850 1.93075
175900 1.85925
175950 2.59454
176000 1.91914
176050 1.08164
176110 2.42174
176160 1.21223
176210 1.07683
176260 0.788717
176310 1.20002
176360 1.10212
176410 1.05482
176460 0.331916
176510 1.86131
176560 0.811031
176610 0.829188
176660 0.594325
176720 1.32500
176770 0.198829
176820 0.949016
176870 1.50679
176920 0.699581
176970 0.540718
177020 0.897956
177070 0.295743
177120 0.464070
177180 0.399147
177230 0.302254
177280 2.35107
177330 2.79847
177380 3.74377
177430 5.51416
177480 8.74346
177530 11.0064
177590 11.4584
177640 10.9134
177690 10.5294
177740 11.4374
177790 10.2093
177840 8.67964
177890 10.4493
177950 9.36014
178000 8.94223
178050 8.30013
178100 7.72053
178150 7.78212
178200 7.12282
178250 7.10992
178310 5.03252
178360 6.72991
178410 5.91141
178460 6.79701
178510 6.33001
178570 7.65940
178620 7.72600
178670 6.86960
178720 5.81109
178770 4.27929
178820 4.83589
178880 3.12349
178930 4.49708
178980 4.14268
179030 4.89518
179080 4.20677
179140 4.46467
179190 4.26887
179240 3.75057
179290 3.33896
179340 3.79166
179400 2.93536
179450 3.80695
179500 3.90535
179550 3.61865
179610 3.95455
179660 2.96954
179710 3.09894
179760 3.30694
179810 2.66603
179870 2.12873
179920 2.38093
179970 2.64553
180020 1.74472
180080 1.34292
180130 2.10352
180180 2.43061
180230 1.07101
180290 1.64171
180340 0.838146
180390 1.17850
180440 2.21360
180500 4.41490
180550 5.96649
180600 6.54929
180650 5.41269
180710 4.02149
180760 3.50878
180810 3.36828
180870 3.21578
180920 2.70517
180970 2.96207
181020 2.08447
181080 2.80617
181130 2.31186
181180 2.08516
181240 2.94116
181290 2.45365
181340 2.54875
181390 3.04895
181450 2.33395
181500 2.52674
181550 1.75634
181610 2.63604
181660 2.71663
181710 3.21013
181770 2.78833
181820 2.64523
181870 1.79742
181930 2.34382
181980 1.61892
182030 0.805674
182090 2.40731
182140 1.92881
182190 1.61281
182250 1.89250
182300 0.475699
182350 1.08280
182410 1.84989
182460 2.26639
182510 1.39699
182570 1.78039
182620 2.01098
182670 2.65938
182730 2.25648
182780 2.30617
182830 3.54597
182890 3.76937
182940 4.16027
183000 4.20136
183050 3.04426
183100 3.88216
183160 5.05725
183210 5.33125
183260 6.24305
183320 3.84664
183370 0.761331
183430 1.79594
183480 1.63224
183530 1.93243
183590 1.22403
183640 2.42743
183700 1.48362
183750 2.19282
183800 2.51132
183860 2.01612
183910 2.16061
183970 2.46511
184020 3.08701
184080 3.19420
184130 3.45920
184180 2.85870
184240 3.35519
184290 3.81259
184350 4.15539
184400 3.94389
184460 4.23288
184510 3.83768
184560 5.08378
184620 4.96237
184670 5.36957
184730 6.07667
184780 5.58997
184840 5.84216
184890 5.62006
184950 5.38766
185000 6.59335
185050 5.91825
185110 6.90475
185160 6.46044
185220 6.03234
185270 7.10444
185330 6.60944
185380 6.03533
185440 6.50783
185490 6.22803
185550 5.85322
185600 5.48652
185660 5.16552
185710 4.49292
185770 3.78021
185820 2.52921
185880 0.805635
185930 0.472623
185990 0.349999
186040 0.559417
186100 0.526203
186150 1.12659
186210 1.55129
186260 2.66979
186320 3.26088
186370 4.86788
186430 5.70858
186480 6.09197
186540 6.79847
186590 5.87577
186650 6.22906
186700 6.60666
186760 7.01236
186820 6.45085
186870 8.47045
186930 8.64485
186980 9.95435
187040 9.89784
187090 9.54784
187150 11.5398
187200 11.0118
187260 12.0408
187310 12.2208
187370 12.7438
187430 13.8158
187480 12.5948
187540 12.8618
187590 13.5118
187650 13.2368
187710 13.0458
187760 12.2378
187820 13.2798
187870 11.6948
187930 11.7698
187980 11.4628
188040 10.6398
188100 9.68489
188150 9.66118
188210 9.63648
188260 8.49858
188320 7.43837
188380 7.45417
188430 6.62807
188490 5.73016
188540 5.53346
188600 4.14926
188660 3.94936
188710 5.92165
188770 5.73165
188830 6.97685
188880 7.88434
188940 8.83184
189000 10.1647
189050 8.86203
189110 8.93083
189160 7.89443
189220 8.70562
189280 7.14092
189330 8.14612
189390 6.17422
189450 6.42091
189500 6.46261
189560 6.07321
189620 6.04600
189670 3.34740
189730 2.81660
189790 2.68439
189840 2.82829
189900 2.50889
189960 3.12998
190010 4.96678
190070 6.42048
190130 5.80458
190190 7.20417
190240 7.70987
190300 7.84667
190360 7.65856
190410 7.60236
190470 7.37256
190530 7.85635
190580 7.22525
190640 8.32815
190700 8.27334
190760 7.76994
190810 6.18364
190870 5.98104
190930 5.49743
190980 6.39803
191040 5.26173
191100 4.97212
191160 5.06432
191210 4.77372
191270 4.58021
191330 4.46791
191390 3.47371
191440 4.16520
191500 4.67980
191560 4.94550
191620 5.99129
191670 6.65259
191730 9.46029
191790 7.89619
191850 8.11028
191900 8.67488
191960 9.71328
192020 10.8956
192080 11.1436
192140 12.3546
192190 11.0026
192250 11.2056
192310 9.76566
192370 11.6976
192420 10.3746
192480 9.13595
192540 7.62384
192600 6.57244
192660 6.68834
192710 6.87684
192770 5.23903
192830 5.74923
192890 5.72723
192950 3.95922
193010 4.49672
193060 4.58642
193120 3.06551
193180 2.26811
193240 1.46851
193300 2.22640
193350 1.78830
193410 3.55870
193470 5.94369
193530 9.82079
193590 11.2155
193650 10.9055
193710 9.34288
193760 8.53348
193820 8.70728
193880 8.42977
193940 7.38347
194000 5.53467
194060 4.15986
194120 4.66446
194170 4.57646
194230 4.32965
194290 4.80755
194350 3.76715
194410 3.77674
194470 3.98094
194530 4.02014
194590 3.67273
194640 5.17933
194700 6.10203
194760 8.29632
194820 9.41342
194880 9.91312
194940 10.4704
195000 10.0304
195060 9.42331
195120 8.43131
195180 7.45590
195240 6.59270
195290 5.62690
195350 6.62899
195410 5.69939
195470 5.06409
195530 4.50048
195590 4.12138
195650 3.74488
195710 3.07797
195770 3.37827
195830 3.65797
195890 3.36016
195950 3.67366
196010 2.19956
196070 2.35065
196130 2.77325
196190 2.69445
196250 2.42634
196310 3.28524
196370 3.72074
196420 3.42623
196480 4.25363
196540 4.74023
196600 4.66812
196660 4.90672
196720 7.03152
196780 6.47312
196840 8.73421
196900 8.76811
196960 10.0543
197020 9.40000
197080 9.44210
197140 9.63320
197200 10.5293
197260 10.4123
197320 12.7363
197380 11.1103
197440 9.45478
197500 8.01528
197570 8.04637
197630 6.00917
197690 6.46447
197750 6.76546
197810 5.70966
197870 5.98416
197930 4.77885
197990 3.86605
198050 4.94745
198110 4.45784
198170 4.13044
198230 4.74874
198290 3.65883
198350 3.09153
198410 4.01153
198470 2.83732
198530 3.14772
198590 3.60822
198650 1.98301
198720 2.17291
198780 2.55051
198840 2.20940
198900 1.81410
198960 2.77510
199020 2.91449
199080 2.40339
199140 1.63829
199200 1.61968
199260 2.25608
199320 1.82508
199390 0.645473
199450 0.314090
199510 0.370147
199570 0.948863
199630 0.931950
199690 2.70096
199750 3.08425
199810 4.44925
199880 4.59005
199940 4.23024
200000 3.63214
200060 3.08284
200120 2.84564
200180 2.22923
200240 1.29063
200310 1.45983
200370 1.08173
200430 1.44343
200490 1.28312
200550 0.759172
200610 1.86532
200670 1.89962
200740 2.41902
200800 2.65501
200860 3.51781
200920 4.71061
200980 5.53441
201050 4.73531
201110 6.13740
201170 5.99430
201230 6.37940
201290 7.19980
201360 7.45280
201420 9.48359
201480 9.92429
201540 11.1671
201600 10.9241
201670 11.3401
201730 11.5521
201790 12.2641
201850 12.2431
201910 11.7741
201980 11.7831
202040 11.7181
202100 10.7311
202160 9.73347
202230 10.5281
202290 8.98716
202350 7.36706
202410 6.97566
202480 6.61646
202540 5.72296
202600 7.35045
202660 7.10295
202730 7.44845
202790 7.83125
202850 8.90005
202910 10.0900
202980 9.68784
203040 10.5960
203100 11.4840
203170 11.2740
203230 9.73423
203290 10.2810
203350 9.82693
203420 8.78873
203480 8.49243
203540 8.18212
203610 7.87242
203670 9.03192
203730 10.6440
203800 11.4370
203860 12.0420
203920 12.2230
203990 12.0310
204050 11.8520
204110 12.7660
204170 11.2730
204240 11.3370
204300 10.0120
204370 9.79190
204430 9.65519
204490 9.27959
204560 9.03379
204620 9.50139
204680 9.31189
204750 8.63568
204810 9.28058
204870 8.42708
204940 8.86318
205000 8.27318
205060 8.52967
205130 8.12717
205190 7.25957
205260 8.34927
205320 8.27036
205380 7.31096
205450 7.33326
205510 7.96886
205580 7.00026
205640 7.19615
205700 7.07455
205770 6.77405
205830 6.00975
205900 6.51335
205960 6.11004
206020 6.50254
206090 6.38584
206150 6.88204
206220 6.27364
206280 5.86363
206340 6.32903
206410 5.43713
206470 5.57843
206540 4.72842
206600 5.02912
206670 5.70482
206730 5.78302
206800 5.57212
206860 5.42111
206920 5.18881
206990 4.36821
207050 5.07671
207120 6.53061
207180 5.34090
207250 5.21880
207310 5.26590
207380 4.93560
207440 5.04099
207510 4.56999
207570 4.31469
207640 3.90149
207700 3.96429
207770 2.79238
207830 3.76858
207900 3.00228
207960 2.92828
208030 2.64928
208090 1.36077
208160 1.76757
208220 1.27797
208290 1.29437
208350 1.59096
208420 2.17416
208480 3.59946
208550 6.56656
208610 8.68136
208680 9.34065
208750 9.94035
208810 9.55475
208880 9.87235
208940 10.3438
209010 10.3868
209070 10.3248
209140 10.1368
209200 9.96034
209270 9.79333
209340 8.64033
209400 8.64613
209470 8.21963
209530 6.15823
209600 6.58002
209670 5.47892
209730 4.26312
209800 5.22242
209860 4.84872
209930 2.88611
209990 2.34711
210060 3.12961
210130 3.79021
210190 5.42450
210260 7.12550
210330 7.72760
210390 6.86110
210460 6.94370
210520 6.96849
210590 6.65659
210660 5.19759
210720 5.51449
210790 5.04658
210860 6.33888
210920 8.17008
210990 8.38188
211060 7.63128
211120 6.41627
211190 5.28667
211260 4.18397
211320 4.14137
211390 4.67906
211460 4.05846
211520 4.23726
211590 3.31526
211660 4.17876
211720 4.80365
211790 5.21575
211860 5.48205
211920 5.46485
211990 5.92254
212060 7.06694
212120 5.93174
212190 6.35474
212260 7.36554
212330 7.21693
212390 8.43273
212460 8.39653
212530 9.65113
212590 10.5677
212660 12.3467
212730 10.7307
212800 8.83572
212860 8.82732
212930 8.79531
213000 8.89461
213070 8.06481
213130 8.22521
213200 8.71990
213270 7.83930
213340 8.18810
213400 6.93530
213470 6.92820
213540 6.45099
213610 6.53709
213670 7.50499
213740 8.95909
213810 10.5997
213880 11.6177
213950 9.91138
214010 9.32748
214080 9.65908
214150 9.59217
214220 9.62197
214290 8.99057
214350 7.95747
214420 7.43916
214490 7.66426
214560 7.55716
214630 6.01446
214700 7.82876
214760 8.06665
214830 9.04855
214900 8.47995
214970 7.09515
215040 7.14004
215110 6.80684
215170 7.09814
215240 8.03204
215310 7.94024
215380 7.41893
215450 6.94313
215520 6.63103
215590 5.46463
215650 5.72572
215720 6.25122
215790 6.53532
215860 5.87072
215930 6.10831
216000 5.74531
216070 5.64701
216140 4.97641
216210 5.84901
216270 4.72580
216340 5.36700
216410 5.38990
216480 5.32920
216550 5.66349
216620 5.74149
216690 6.86369
216760 8.90139
216830 7.93209
216900 6.22798
216970 5.83808
217040 4.96308
217110 4.32128
217170 4.26317
217240 4.03147
217310 4.05547
217380 4.65737
217450 4.26756
217520 3.55066
217590 3.25176
217660 3.37246
217730 3.58376
217800 3.52955
217870 3.07935
217940 2.82765
218010 3.23295
218080 3.78354
218150 5.24114
218220 6.05184
218290 6.67954
218360 7.85233
218430 8.93963
218500 9.70113
218570 10.0825
218640 9.74933
218710 9.30322
218780 9.18052
218850 8.33572
218920 8.70342
218990 8.32001
219060 7.28411
219130 6.90981
219200 6.49401
219270 6.75430
219340 6.48080
219410 6.25150
219480 5.90880
219560 4.82100
219630 4.97569
219700 5.55089
219770 4.77989
219840 4.60209
219910 4.49538
219980 4.76098
220050 4.08308
220120 4.31528
220190 4.69237
220260 3.48157
220330 3.24167
220410 3.31097
220480 3.26746
220550 3.10706
220620 2.78906
220690 2.20926
220760 2.38426
220830 1.68355
220900 2.61275
220970 3.60405
221050 6.45385
221120 6.58904
221190 8.52784
221260 8.71004
221330 9.29804
221400 9.63073
221470 8.60673
221550 8.11353
221620 7.45343
221690 8.32832
221760 7.06892
221830 6.60002
221900 6.04782
221980 6.41162
222050 7.06941
222120 6.26341
222190 5.53271
222260 5.42511
222340 5.50000
222410 5.33020
222480 5.58810
222550 5.21120
222620 4.87449
222700 4.59299
222770 4.17669
222840 3.75079
222910 4.24618
222980 4.18718
223060 4.41638
223130 3.79078
223200 3.52847
223270 3.69307
223350 3.26127
223420 3.87207
223490 4.40407
223560 4.59566
223640 4.40216
223710 3.16136
223780 3.55106
223850 5.70635
223930 6.72075
224000 6.93315
224070 6.21135
224140 6.40514
224220 6.20034
224290 4.59914
224360 4.92614
224440 4.41673
224510 4.07053
224580 4.17403
224660 4.05533
224730 3.69652
224800 4.80392
224870 5.77452
224950 7.08232
225020 7.04631
225090 6.04451
225170 4.65221
225240 4.44831
225310 4.81881
225390 4.16890
225460 5.30240
225540 4.46080
225610 4.91530
225680 5.06769
225760 5.64379
225830 4.58139
225900 4.51809
225980 5.35838
226050 6.93008
226120 7.12738
226200 7.44668
226270 7.87447
226350 8.34027
226420 8.56697
226490 9.30387
226570 9.41606
226640 9.30546
226720 7.29556
226790 6.95566
226860 6.68735
226940 6.38115
227010 7.48605
227090 6.90335
227160 5.35264
227240 5.80714
227310 4.88364
227380 4.66124
227460 4.79653
227530 5.17243
227610 4.70303
227680 4.38573
227760 4.40562
227830 3.36432
227910 4.09172
227980 5.00322
228060 6.38381
228130 5.94781
228200 5.60451
228280 4.35101
228350 4.34290
228430 4.31770
228500 3.22680
228580 3.59550
228650 4.03800
228730 3.76349
228800 3.58439
228880 3.28189
228950 3.15879
229030 3.51608
229110 4.37208
229180 6.52198
229260 6.68117
229330 6.94627
229410 6.98037
229480 7.34137
229560 6.80627
229630 6.32206
229710 5.68846
229780 7.34566
229860 7.68646
229940 6.94085
230010 6.45375
230090 4.99775
230160 5.11225
230240 5.60434
230310 4.89374
230390 4.62774
230470 4.05163
230540 4.00053
230620 3.96753
230690 4.31493
230770 5.20213
230850 4.11622
230920 4.25892
231000 3.92692
231070 3.60332
231150 4.56281
231230 4.08641
231300 4.72311
231380 4.66440
231460 4.05550
231530 3.94210
231610 4.30250
231690 5.12279
231760 4.72359
231840 4.94889
231920 3.93809
231990 3.74978
232070 3.37898
232150 3.23498
232220 2.90508
232300 3.03447
232380 2.76067
232450 2.84157
232530 2.94297
232610 3.32196
232680 3.60696
232760 2.57646
232840 2.51626
232920 2.25125
232990 2.31825
233070 2.05685
233150 1.48515
233220 1.33114
233300 1.82914
233380 1.47544
233460 1.80394
233530 2.20763
233610 2.96763
233690 4.23813
233770 4.09383
233840 6.01652
233920 8.29932
234000 9.94332
234080 9.68822
234150 8.21711
234230 6.09461
234310 5.37571
234390 5.33411
234470 5.12880
234540 4.37730
234620 3.82920
234700 3.82830
234780 2.98849
234860 3.37819
234930 3.28859
235010 3.00919
235090 3.47748
235170 2.88308
235250 2.90938
235330 2.34337
235400 2.87597
235480 2.87417
235560 3.15347
235640 2.85346
235720 2.74786
235800 3.64166
235870 4.05586
235950 5.79375
236030 5.92135
236110 6.06255
236190 6.29105
236270 6.66624
236350 5.55704
236430 5.14324
236500 5.44154
236580 4.79353
236660 4.49963
236740 5.79613
236820 6.81083
236900 7.55282
236980 6.29932
237060 5.65512
237140 4.95091
237220 3.62551
237300 3.10001
237380 2.54031
237460 1.71860
237530 2.86060
237610 4.56030
237690 5.87180
237770 6.58189
237850 6.32029
237930 5.88359
238010 6.61519
238090 6.47208
238170 5.57708
238250 5.92198
238330 5.11328
238410 5.84567
238490 6.95047
238570 6.51827
238650 5.30167
238730 4.42826
238810 3.78196
238890 3.68686
238970 2.85935
239050 3.72815
239130 3.62475
239210 4.66105
239290 6.62394
239370 7.62604
239450 8.90154
239530 8.32294
239610 8.53903
239690 6.72613
239770 7.10533
239860 6.20243
239940 5.89152
240020 5.59802
240100 5.85662
240180 4.72981
240260 4.88481
240340 4.98321
240420 4.32041
240500 4.72060
240580 4.71300
240660 4.24470
240740 4.19220
240830 4.13809
240910 4.07749
240990 4.94939
241070 4.63249
241150 4.77538
241230 4.16378
241310 3.87458
241390 3.90297
241480 3.24557
241560 4.29677
241640 3.57997
241720 4.19616
241800 2.76726
241880 3.29176
241970 3.14846
242050 2.93335
242130 3.30755
242210 3.46565
242290 4.24384
242370 3.88044
242460 4.00224
242540 3.20354
242620 3.31943
242700 3.25483
242780 2.35183
242870 1.84693
242950 2.51472
243030 3.59472
243110 3.93602
243200 3.57831
243280 2.90661
243360 2.59951
243440 2.18761
243530 2.17050
243610 2.48050
243690 3.04850
243770 5.04540
243860 6.89979
243940 7.20069
244020 6.22819
244100 4.49349
244190 2.94418
244270 3.17728
244350 3.63728
244430 2.83377
244520 2.11087
244600 1.78437
244680 1.57277
244770 1.78636
244850 1.51796
244930 1.32066
245020 2.04295
245100 1.22255
245180 1.26195
245270 1.57665
245350 1.47734
245430 1.17924
245520 0.790968
245600 1.26604
245680 1.70763
245770 2.33613
245850 2.59563
245930 2.88772
246020 3.44382
246100 4.53792
246190 5.00142
246270 4.62471
246350 3.98721
246440 3.51251
246520 2.77741
246610 2.12060
246690 2.18150
246770 1.43350
246860 1.61979
246940 4.36539
247030 5.26759
247110 6.15149
247200 6.76288
247280 5.05708
247360 4.54168
247450 3.94577
247530 3.86527
247620 3.73907
247700 3.73737
247790 4.76596
247870 4.92666
247960 4.30636
248040 2.20166
248130 1.85935
248210 2.06275
248300 1.77755
248380 3.58584
248470 4.11454
248550 4.94844
248640 5.52774
248720 5.00453
248810 5.44633
248890 5.46133
248980 4.81992
249060 4.64242
249150 4.81272
249230 5.30902
249320 7.28551
249400 7.69171
249490 6.16201
249570 4.85160
249660 4.66410
249750 4.19510
249830 4.11160
249920 3.35959
250000 3.26499
250090 3.35949
250170 3.11029
250260 2.95028
250350 3.40118
250430 3.41508
250520 3.16108
250600 2.90278
250690 2.66718
250780 3.04307
250860 2.18197
250950 2.51627
251030 2.70197
251120 2.19697
251210 1.74096
251290 2.26166
251380 2.46106
251470 2.69366
251550 3.69166
251640 4.39645
251730 4.44355
251810 4.75515
251900 4.01525
251990 4.13635
252070 5.36645
252160 5.56054
252250 5.73214
252330 6.65854
252420 6.56334
252510 7.63874
252600 7.35473
252680 7.83003
252770 7.58433
252860 6.47053
252940 6.23853
253030 4.73932
253120 3.96112
253210 3.28292
253290 2.82822
253380 2.78102
253470 2.26551
253560 2.99471
253640 3.91701
253730 4.85111
253820 4.75971
253910 5.51391
254000 6.08210
254080 6.73480
254170 6.48750
254260 6.77010
254350 6.53200
254440 6.45319
254520 6.15779
254610 6.41949
254700 5.54709
254790 5.88139
254880 6.26128
254970 5.53498
255050 4.93008
255140 4.73548
255230 4.37858
255320 4.87937
255410 3.92247
255500 3.91387
255580 3.16357
255670 3.14217
255760 3.10646
255850 3.30946
255940 3.09846
256030 3.03106
256120 2.51506
256210 2.47276
256300 2.06885
256380 2.69435
256470 3.03615
256560 2.81805
256650 2.99825
256740 3.53674
256830 3.85194
256920 4.44924
257010 4.76144
257100 4.88904
257190 5.09683
257280 4.92943
257370 5.81133
257460 6.04583
257550 6.23953
257640 5.31462
257730 6.14652
257820 7.09862
257910 7.96222
258000 9.74342
258090 9.27941
258180 8.90421
258270 8.19961
258360 6.91901
258450 5.82121
258540 5.74640
258630 5.79850
258720 5.54160
258810 5.00270
258900 5.00140
258990 5.69609
259080 5.91659
259170 5.78599
259260 5.35909
259350 4.99219
259440 4.21138
259530 3.77118
259620 3.92288
259710 4.40448
259800 3.52088
259900 3.50317
259990 3.06827
260080 2.52147
260170 1.99527
260260 2.36137
260350 2.45016
260440 2.54286
260530 2.57116
260620 1.76086
260720 2.70156
260810 2.69235
260900 3.08625
260990 2.27975
261080 1.91425
261170 1.41735
261260 1.60395
261360 2.35744
261450 3.25264
261540 2.83334
261630 2.62314
261720 3.41814
261820 3.88393
261910 4.38713
262000 4.74343
262090 5.28003
262180 5.60492
262280 5.77312
262370 6.69762
262460 7.17332
262550 8.49872
262640 8.44261
262740 7.66671
262830 6.70221
262920 6.73481
263010 6.85591
263110 6.16650
263200 5.50640
263290 6.10520
263390 5.29690
263480 5.75720
263570 5.11469
263660 5.38679
263760 4.69759
263850 5.53199
263940 5.33089
264040 5.64498
264130 6.95038
264220 7.08768
264320 5.69138
264410 5.21448
264500 5.54267
264600 5.09137
264690 5.19927
264780 3.97397
264880 5.18257
264970 5.54296
265060 4.99086
265160 4.91806
265250 4.71866
265340 4.50876
265440 3.79565
265530 3.50835
265630 3.34275
265720 2.70575
265810 3.10565
265910 3.35444
266000 3.65944
266100 2.96464
266190 3.86474
266290 4.08204
266380 4.59323
266470 5.22543
266570 5.35563
266660 6.97013
266760 9.49013
266850 8.87232
266950 6.06652
267040 4.08582
267140 3.77562
267230 2.56681
267330 2.71281
267420 3.15111
267520 2.33711
267610 2.23301
267710 2.60630
267800 2.16050
267900 2.41800
267990 1.52230
268090 2.17580
268180 2.03859
268280 1.58729
268370 2.20289
268470 2.39499
268560 2.27509
268660 2.00578
268750 2.46228
268850 3.16158
268950 4.92658
269040 6.87038
269140 7.20207
269230 7.55837
269330 7.05027
269420 7.44487
269520 7.44896
269620 6.71656
269710 6.69276
269810 7.11776
269910 6.22116
270000 5.95915
270100 5.69835
270190 4.62095
270290 5.02865
270390 5.70435
270480 6.89824
270580 8.40374
270680 7.85604
270770 8.30984
270870 7.86594
270970 8.50873
271060 8.84573
271160 8.01123
271260 7.66743
271350 7.80283
271450 7.93752
271550 7.98202
271650 8.56132
271740 7.29012
271840 7.36111
271940 7.40121
272040 6.50061
272130 5.76021
272230 5.32301
272330 5.60690
272430 5.27150
272520 4.64590
272620 4.94290
272720 3.93120
272820 4.34259
272910 3.98189
273010 3.53759
273110 3.26289
273210 2.95228
273310 3.43578
273400 3.78758
273500 3.12458
273600 2.76848
273700 2.37077
273800 1.34627
273890 1.67847
273990 2.08567
274090 3.21327
274190 4.47196
274290 4.91356
274390 6.20206
274490 7.11446
274580 7.68855
274680 8.13305
274780 7.74665
274880 7.33615
274980 6.47445
275080 5.20104
275180 4.41884
275280 3.04394
275380 3.28874
275480 3.60284
275570 4.25403
275670 5.70663
275770 5.85343
275870 6.78283
275970 6.31142
276070 5.79082
276170 5.76082
276270 5.88542
276370 6.21932
276470 6.05541
276570 6.26111
276670 6.73961
276770 6.38681
276870 6.36410
276970 6.46110
277070 5.29980
277170 5.35940
277270 4.87450
277370 5.63449
277470 5.06929
277570 4.89979
277670 4.58609
277770 5.52669
277870 6.79278
277970 7.83698
278070 9.67128
278170 9.27628
278280 8.00897
278380 7.83627
278480 7.31877
278580 7.41017
278680 6.85397
278780 6.39286
278880 6.47156
278980 5.86886
279080 5.99466
279180 5.23435
279290 5.12975
279390 4.17815
279490 4.04115
279590 3.57965
279690 3.21354
279790 3.01634
279890 3.58064
280000 3.88984
280100 3.71233
280200 3.38813
280300 3.46173
280400 3.98903
280510 4.37713
280610 4.46412
280710 4.58912
280810 5.23222
280910 6.28342
281020 6.67411
281120 6.40921
281220 6.43821
281320 6.38381
281430 6.75031
281530 6.81320
281630 7.61610
281730 7.56040
281840 8.27720
281940 7.99779
282040 8.40719
282140 8.34949
282250 7.93929
282350 8.03999
282450 8.24178
282560 8.45418
282660 8.48908
282760 7.86768
282870 8.00327
282970 7.96487
283070 7.96607
283180 7.10327
283280 6.48966
283380 6.91716
283490 6.94486
283590 5.92526
283690 6.13886
283800 6.48175
283900 6.00585
284000 5.99715
284110 5.43665
284210 5.29354
284320 5.37984
284420 5.39274
284520 5.41814
284630 5.47704
284730 4.84893
284840 5.10623
284940 4.28513
285050 3.40983
285150 3.46532
285260 3.14432
285360 3.06082
285460 3.11482
285570 2.86802
285670 3.08631
285780 3.76101
285880 6.41801
285990 8.71311
286090 8.71760
286200 8.09130
286300 7.97040
286410 7.11680
286510 6.64159
286620 7.37649
286720 7.32349
286830 7.16079
286940 6.35999
287040 6.32968
287150 5.98998
287250 5.75848
287360 6.07338
287460 5.74257
287570 6.53797
287680 5.98547
287780 6.20397
287890 5.48886
287990 4.73556
288100 3.90216
288210 3.40666
288310 3.46066
288420 3.82285
288520 3.40025
288630 2.69695
288740 3.01285
288840 2.47844
288950 2.42484
289060 2.47054
289160 3.40214
289270 4.74773
289380 6.70243
289480 7.19703
289590 7.21343
289700 6.45623
289810 7.10832
289910 7.39362
290020 7.96192
290130 8.01582
290230 7.85601
290340 6.68561
290450 6.31221
290560 6.51381
290660 5.96600
290770 5.83970
290880 5.46980
290990 5.32970
291090 4.89479
291200 5.11529
291310 5.44299
291420 5.68809
291530 5.83349
291630 5.59608
291740 5.21218
291850 5.05738
291960 5.13858
292070 5.25867
292180 5.22737
292280 4.76357
292390 5.14337
292500 4.67176
292610 3.99286
292720 3.82196
292830 4.55866
292940 5.22395
293040 5.14615
293150 4.31055
293260 3.95865
293370 3.70405
293480 4.09754
293590 5.21324
293700 5.41774
293810 4.60314
293920 4.43893
294030 4.83523
294140 4.27493
294250 4.78433
294360 5.50332
294460 4.76302
294570 4.47612
294680 4.67662
294790 4.28511
294900 4.39091
295010 3.91201
295120 3.45251
295230 3.08860
295340 3.84040
295450 4.07700
295560 3.64460
295670 3.48879
295790 3.14269
295900 3.22779
296010 2.76389
296120 2.99759
296230 3.38488
296340 2.63598
296450 2.60738
296560 2.28638
296670 2.95737
296780 3.72027
296890 4.95707
297000 5.70107
297110 5.56546
297230 5.23216
297340 5.79156
297450 5.14906
297560 4.37955
297670 2.42005
297780 2.86405
297890 2.09435
298010 2.39274
298120 1.94804
298230 1.76064
298340 1.72654
298450 2.18133
298570 2.30023
298680 4.07923
298790 5.03223
298900 5.20322
299010 5.27292
299130 5.87822
299240 6.11392
299350 5.65371
299460 5.16541
299580 5.30181
299690 5.65581
299800 6.40620
299910 6.69810
300000 5.99650
300030 5.76270
300140 5.35480
300250 4.98080
300360 4.68280
300480 5.03919
300590 4.94299
300700 5.54369
300820 6.22239
300930 5.61299
301040 4.45968
301160 4.10928
301270 4.03878
301380 4.07648
301500 3.90078
301610 3.78678
301730 3.65217
301840 3.45387
301950 3.31057
302070 3.70027
302180 4.01727
302290 3.59837
302410 3.68196
302520 4.16246
302640 3.62236
302750 3.21966
302870 3.11516
302980 3.10316
303090 2.44295
303210 2.33185
303320 2.07905
303440 2.14705
303550 1.89175
303670 2.30184
303780 2.04284
303900 2.49124
304010 2.64804
304130 2.21514
304240 3.45654
304360 3.99003
304470 4.16543
304590 3.74603
304700 2.35903
304820 1.43863
304940 1.63313
305050 1.34762
305170 0.573881
305280 0.662860
305400 0.557188
305510 0.630036
305630 1.04901
305750 1.28721
305860 1.42081
305980 2.00971
306090 3.14421
306210 5.18321
306330 5.59540
306440 6.50540
306560 7.70740
306680 8.34570
306790 7.65780
306910 6.38260
307030 4.64669
307140 4.07849
307260 2.99269
307380 3.05969
307490 2.28709
307610 2.05728
307730 1.41238
307850 2.01558
307960 3.04988
308080 3.66308
308200 3.62948
308320 3.97977
308430 4.69827
308550 5.04557
308670 5.37677
308790 3.52157
308900 2.74577
309020 2.10256
309140 1.55716
309260 2.42916
309380 3.53976
309490 4.03026
309610 5.56495
309730 5.52425
309850 6.45095
309970 7.73885
310090 7.59515
310200 6.76155
310320 5.24124
310440 4.65404
310560 4.02014
310680 3.52714
310800 3.65674
310920 3.45453
311040 3.49083
311150 3.23183
311270 2.39603
311390 2.62603
311510 2.43853
311630 2.23942
311750 1.81292
311870 1.93392
311990 1.78652
312110 1.22762
312230 1.08661
312350 1.59851
312470 2.21451
312590 2.98671
312710 4.21901
312830 3.99661
312950 3.45650
313070 2.74420
313190 2.82830
313310 2.75970
313430 2.21970
313550 2.27649
313670 2.23589
313790 2.02239
313910 1.97039
314030 1.97829
314150 2.39599
314280 2.27348
314400 2.40158
314520 2.03908
314640 2.21118
314760 2.14878
314880 1.80147
315000 2.26657
315120 2.59717
315240 2.95957
315370 2.72227
315490 2.62637
315610 3.38336
315730 4.01636
315850 4.82086
315970 5.10546
316100 4.11666
316220 4.93525
316340 4.31535
316460 3.87995
316590 2.43185
316710 1.47935
316830 1.36174
316950 0.780092
317070 1.18834
317200 2.84244
317320 3.20804
317440 3.78014
317570 4.01183
317690 4.45243
317810 3.92493
317930 3.60553
318060 3.29683
318180 2.43762
318300 2.08802
318430 1.84802
318550 1.88582
318670 2.52752
318800 2.93821
318920 3.82521
319040 3.99411
319170 4.09511
319290 4.40451
319420 4.83101
319540 4.56900
319660 4.29400
319790 4.48070
319910 4.72550
320040 5.03560
320160 5.28259
320290 4.89219
320410 5.30229
320530 4.88559
320660 4.75379
320780 4.89828
320910 5.45048
321030 5.33408
321160 5.18148
321280 5.60738
321410 5.07178
321530 5.11537
321660 5.06377
321780 5.47567
321910 5.67717
322030 5.30587
322160 5.09526
322290 5.29696
322410 5.26366
322540 4.99146
322660 5.50666
322790 5.32555
322910 5.84045
323040 6.64535
323170 6.75835
323290 6.78345
323420 7.75834
323540 7.73734
323670 7.77274
323800 8.04984
323920 8.17804
324050 8.62033
324180 8.08573
324300 6.92663
324430 6.63003
324560 6.33693
324680 6.18803
324810 6.36562
324940 5.91182
325070 5.77452
325190 5.84272
325320 5.51572
325450 4.93571
325580 5.40521
325700 5.16321
325830 3.84271
325960 3.33661
326090 2.76800
326210 3.38320
326340 3.80370
326470 4.87370
326600 5.48730
326730 6.18669
326850 6.99949
326980 6.43949
327110 6.10339
327240 5.73039
327370 5.79588
327500 4.70358
327620 4.90698
327750 4.49148
327880 4.02348
328010 4.12217
328140 3.40777
328270 2.25657
328400 2.78097
328530 3.64137
328660 4.90196
328790 5.63896
328920 5.77936
329050 6.05276
329170 6.47366
329300 7.01406
329430 5.59665
329560 5.59415
329690 6.29365
329820 6.31045
329950 5.90345
330080 5.39644
330210 4.83014
330340 4.52434
330470 3.89164
330610 4.07074
330740 3.27283
330870 3.33523
331000 3.27333
331130 3.10143
331260 3.27813
331390 3.47462
331520 3.41662
331650 3.66402
331780 3.86552
331910 4.59032
332050 5.24641
332180 4.92421
332310 4.52311
332440 4.86481
332570 5.86721
332700 5.64720
332830 6.32510
332970 6.32360
333100 7.57480
333230 8.03470
333360 7.08549
333490 5.74059
333630 5.02209
333760 4.21409
333890 3.50729
334020 3.98898
334160 4.62488
334290 5.49598
334420 5.40218
334550 5.38498
334690 5.64757
334820 5.57647
334950 5.46627
335090 4.79567
335220 4.50437
335350 4.47336
335490 5.00766
335620 5.11316
335750 5.08356
335890 6.05515
336020 7.25935
336150 6.74285
336290 4.82105
336420 3.79175
336560 3.01184
336690 3.05844
336820 3.16894
336960 3.01384
337090 2.99164
337230 2.89463
337360 2.26833
337500 2.43203
337630 2.51143
337770 2.91253
337900 3.69282
338030 3.45172
338170 3.85482
338300 4.24112
338440 4.22482
338570 5.12651
338710 5.26191
338850 5.10131
338980 5.10801
339120 5.25331
339250 5.07840
339390 4.77260
339520 5.02670
339660 4.86960
339800 5.20110
339930 4.76469
340070 4.90509
340200 5.14159
340340 4.64459
340480 4.62969
340610 5.09528
340750 5.10538
340890 4.40738
341020 3.48638
341160 3.59897
341300 4.17027
341430 3.38647
341570 3.59337
341710 3.14197
341840 2.67776
341980 2.69046
342120 1.99276
342260 1.30296
342390 2.03086
342530 4.16175
342670 6.28265
342810 6.80575
342940 6.46665
343080 6.23875
343220 6.51104
343360 7.38854
343500 7.53054
343630 6.64714
343770 5.77304
343910 4.46583
344050 4.05693
344190 3.31863
344330 2.58493
344470 2.34552
344600 2.12232
344740 1.99342
344880 1.85982
345020 1.29362
345160 1.19921
345300 1.15181
345440 0.952869
345580 0.985457
345720 1.63361
345860 2.11080
346000 2.36690
346140 2.75480
346280 4.58520
346420 6.55889
346560 6.92079
346700 5.61609
346840 5.54529
346980 5.37099
347120 5.26018
347260 4.37328
347400 3.84748
347540 4.05228
347680 3.41498
347820 3.71247
347960 3.72857
348100 3.40857
348240 3.79937
348380 4.25027
348520 4.81836
348670 6.05646
348810 6.55546
348950 7.59596
349090 7.24855
349230 6.57865
349370 7.07215
349520 7.21675
349660 7.36895
349800 7.78494
349940 7.57484
350000 7.38534
350080 7.13264
350230 6.16564
350370 6.23224
350510 5.57113
350650 5.14863
350800 5.07193
350940 4.74943
351080 5.77163
351220 6.24223
351370 5.82543
351510 5.04552
351650 4.71262
351800 4.53682
351940 4.23802
352080 3.85472
352230 4.60112
352370 4.81681
352510 5.49301
352660 5.40041
352800 4.27211
352940 3.60221
353090 3.42171
353230 3.58490
353380 3.39070
353520 3.73590
353670 3.60050
353810 3.44500
353950 3.11570
354100 2.97209
354240 3.27159
354390 3.15639
354530 3.49689
354680 3.69689
354820 3.99199
354970 4.94848
355110 5.90948
355260 6.59298
355400 6.21188
355550 5.84588
355690 5.85878
355840 6.35518
355990 5.84377
356130 4.16107
356280 3.48647
356420 3.17387
356570 3.62837
356720 3.89817
356860 4.25036
357010 4.00706
357160 4.03276
357300 4.10226
357450 3.62286
357600 3.47786
357740 3.33195
357890 3.44065
358040 3.11125
358180 3.11645
358330 2.58725
358480 2.43815
358620 2.78974
358770 3.11564
358920 3.60134
359070 4.30124
359220 3.87244
359360 3.45134
359510 3.14023
359660 3.02133
359810 3.68813
359960 4.69573
360100 5.14673
360250 5.76463
360400 6.97002
360550 7.53682
360700 7.67662
360850 7.62652
361000 7.70092
361140 7.80922
361290 7.78731
361440 8.42961
361590 7.91061
361740 7.12971
361890 6.19551
362040 6.39181
362190 6.00110
362340 5.73490
362490 5.64470
362640 5.59010
362790 5.56470
362940 5.84790
363090 6.08409
363240 5.69429
363390 5.15729
363540 4.31729
363690 3.98299
363840 3.74549
363990 4.31748
364140 4.96138
364290 5.51888
364440 6.99958
364590 7.58848
364750 6.50988
364900 5.83007
365050 4.77507
365200 4.32867
365350 3.58627
365500 3.23127
365650 3.74647
365810 4.51846
365960 4.79276
366110 4.06306
366260 3.37506
366410 2.84676
366570 2.36035
366720 2.88005
366870 3.98975
367020 4.74595
367180 5.60095
367330 6.17595
367480 6.03244
367640 6.69494
367790 6.32314
367940 6.35194
368100 5.50294
368250 4.67294
368400 4.58523
368560 3.99083
368710 3.99413
368860 3.86633
369020 4.29493
369170 4.60373
369320 4.35312
369480 4.01352
369630 3.57472
369790 3.56052
369940 2.74682
370100 2.61222
370250 2.28821
370410 2.44131
370560 2.78151
370720 3.60931
370870 3.19211
371030 2.66430
371180 1.89470
371340 2.38420
371490 2.00610
371650 2.67950
371800 3.76700
371960 5.15639
372110 5.33439
372270 4.19209
372430 3.25979
372580 3.12219
372740 3.43719
372890 3.57688
373050 3.76378
373210 5.05408
373360 6.50628
373520 6.53798
373680 6.23618
373830 4.96867
373990 4.90907
374150 4.22207
374300 4.18857
374460 4.88187
374620 5.75796
374780 7.42146
374930 7.82596
375090 7.40266
375250 5.66036
375410 5.07726
375560 4.93215
375720 4.37285
375880 4.23525
376040 4.99565
376200 5.90485
376360 6.25015
376510 6.66624
376670 6.42424
376830 6.30324
376990 6.27494
377150 6.58694
377310 6.86903
377470 6.76793
377630 6.31363
377790 5.52323
377950 5.42163
378110 5.16973
378260 4.46592
378420 4.50262
378580 4.09662
378740 3.32952
378900 3.98622
379060 3.93112
379220 4.82771
379390 5.28691
379550 5.39601
379710 4.67881
379870 5.09751
380030 4.94690
380190 5.47380
380350 5.78300
380510 5.97190
380670 5.29660
380830 4.95100
380990 5.53209
381160 5.63889
381320 6.24599
381480 6.61359
381640 7.62629
381800 7.09228
381960 5.89818
382130 5.28588
382290 4.80258
382450 4.78908
382610 4.72588
382780 4.50707
382940 4.35537
383100 4.71467
383260 4.76217
383430 4.47167
383590 3.62716
383750 3.97616
383920 3.99596
384080 3.70986
384240 3.34816
384410 3.09836
384570 2.40585
384730 1.76075
384900 2.28025
385060 2.18165
385230 2.68305
385390 4.35724
385550 5.37784
385720 5.82664
385880 5.01614
386050 4.66844
386210 4.10813
386380 4.32843
386540 4.69313
386710 4.49223
386870 3.86503
387040 3.37923
387200 2.98912
387370 2.72602
387530 3.12652
387700 3.88652
387870 4.55262
388030 4.99041
388200 5.58411
388360 5.73631
388530 4.66301
388700 4.51461
388860 4.09601
389030 3.30260
389200 2.80650
389360 3.18640
389530 3.95570
389700 4.38430
389860 3.56089
390030 3.52749
390200 3.66139
390360 3.00499
390530 2.73569
390700 2.50288
390870 2.23238
391030 2.50448
391200 2.63168
391370 2.80528
391540 2.57738
391710 2.48057
391880 2.49217
392040 2.64337
392210 1.97307
392380 2.04997
392550 2.82916
392720 3.11456
392890 3.21316
393060 3.38316
393230 3.85666
393400 4.05575
393560 4.38745
393730 4.23305
393900 3.16975
394070 2.56245
394240 2.13545
394410 2.58404
394580 2.61434
394750 2.68824
394920 3.12634
395090 3.20704
395270 4.24143
395440 5.32953
395610 6.11073
395780 5.51713
395950 3.72203
396120 3.18742
396290 3.17762
396460 3.53642
396630 3.92672
396800 4.62212
396980 4.98911
397150 5.23011
397320 5.37521
397490 5.44561
397660 6.05371
397840 5.69490
398010 5.71690
398180 5.77050
398350 5.05170
398530 4.96010
398700 4.18050
398870 4.29679
399040 3.89729
399220 3.52549
399390 3.77809
399560 3.52449
399740 3.42308
399910 3.28308
400000 3.09858
400080 2.93458
400260 3.02098
400430 2.56518
400610 2.24678
400780 2.12027
400950 1.77387
401130 1.99867
401300 2.42457
401480 2.32047
401650 1.89667
401830 1.09977
402000 1.03997
402180 1.43846
402350 2.07046
402530 3.26586
402700 3.80556
402880 3.89726
403050 3.48596
403230 2.25626
403410 1.71446
403580 0.956634
403760 1.58385
403930 2.25515
404110 3.15495
404290 4.54615
404460 3.86435
404640 3.22615
404820 3.09765
404990 3.05134
405170 3.08894
405350 3.24674
405520 3.42244
405700 3.81214
405880 3.47404
406060 2.94584
406230 1.47684
406410 1.12973
406590 1.22813
406770 2.30823
406950 3.91183
407120 5.80403
407300 6.88083
407480 5.29543
407660 4.09742
407840 3.71622
408020 3.00012
408200 2.37562
408380 1.82242
408550 1.45792
408730 1.18342
408910 0.959925
409090 0.873074
409270 0.995472
409450 1.13141
409630 1.56261
409810 1.73751
409990 1.79461
410170 1.94811
410350 2.09950
410530 2.26350
410710 3.38880
410890 4.00690
411080 4.14410
411260 4.24290
411440 4.22270
411620 4.49600
411800 4.86809
411980 5.07659
412160 5.75919
412350 5.83459
412530 5.45069
412710 5.35209
412890 5.81029
413070 5.99219
413260 6.97058
413440 7.08068
413620 7.42928
413800 7.48578
413990 6.11158
414170 5.43148
414350 5.53418
414530 4.98877
414720 4.51807
414900 4.40287
415080 3.35327
415270 4.10577
415450 4.98357
415640 5.07927
415820 5.19957
416000 4.77926
416190 4.97186
416370 5.31226
416560 5.76516
416740 4.78496
416930 3.62936
417110 2.67186
417300 2.30705
417480 1.96935
417670 1.66315
417850 2.01285
418040 2.25865
418220 1.85935
418410 0.672886
418590 0.408014
418780 0.620823
418970 0.484222
419150 0.895540
419340 1.45644
419530 2.29634
419710 2.59014
419900 3.40784
420090 4.81423
420270 4.87303
420460 5.74323
420650 6.04953
420830 6.02793
421020 5.62633
421210 4.93633
421400 4.97242
421580 5.84092
421770 6.53492
421960 6.99322
422150 7.46122
422340 6.97932
422530 5.92422
422710 4.77731
422900 4.25641
423090 4.68241
423280 5.01691
423470 5.61811
423660 5.83231
423850 5.87561
424040 5.72591
424230 5.09360
424420 4.52380
424610 4.28910
424800 4.08130
424990 4.41030
425180 4.64720
425370 4.65530
425560 4.50709
425750 4.11269
425940 4.02419
426130 3.47059
426320 3.19689
426510 3.76539
426700 4.38949
426900 5.04338
427090 5.56288
427280 5.91118
427470 5.62328
427660 5.87638
427850 6.15108
428050 6.71918
428240 7.50087
428430 6.36477
428620 5.78217
428820 4.95687
429010 4.89187
429200 5.00867
429400 5.22357
429590 5.03756
429780 5.27276
429980 5.53806
430170 6.25856
430360 5.08836
430560 3.65866
430750 3.62096
430940 3.62645
431140 4.20155
431330 3.82445
431530 2.97155
431720 2.55065
431920 2.67685
432110 2.44505
432310 2.23574
432500 2.63994
432700 2.75974
432890 2.91934
433090 3.22904
433280 3.82144
433480 4.16874
433680 4.15773
433870 3.28573
434070 3.16983
434270 3.22513
434460 3.61703
434660 3.65873
434850 3.60563
435050 4.60652
435250 4.26612
435450 4.70062
435640 5.46832
435840 6.33192
436040 6.11612
436240 6.58012
436430 5.71251
436630 4.59271
436830 3.96931
437030 3.09551
437230 3.50941
437430 4.09081
437620 5.20991
437820 5.73470
438020 6.06400
438220 6.12880
438420 5.89150
438620 5.39000
438820 4.48280
439020 4.42710
439220 4.33369
439420 5.13919
439620 5.68879
439820 6.58089
440020 6.26979
440220 5.36229
440420 4.63309
440620 3.78098
440820 3.30828
441020 2.73788
441220 3.47158
441420 3.93078
441630 4.18278
441830 4.02588
442030 4.16497
442230 3.92937
442430 4.62067
442630 4.92397
442840 4.80777
443040 4.30407
443240 3.93946
443440 3.79266
443650 4.01776
443850 4.82766
444050 4.85526
444260 4.66846
444460 4.74846
444660 4.21495
444870 3.82725
445070 3.47165
445270 4.25785
445480 4.75445
445680 4.90165
445890 5.25585
446090 5.08664
446300 4.61704
446500 4.75314
446710 4.95064
446910 4.20834
447120 3.30674
447320 2.93724
447530 3.59393
447730 4.07833
447940 4.02573
448140 4.13073
448350 4.31143
448560 4.14973
448760 3.78942
448970 3.87992
449170 5.00502
449380 5.80682
449590 5.79172
449800 5.09122
450000 4.06782
450210 3.62261
450420 3.96851
450620 3.77081
450830 3.27231
451040 2.70551
451250 2.72211
451460 2.40990
451660 2.20900
451870 2.95860
452080 3.28120
452290 3.69010
452500 4.99830
452710 6.41980
452920 7.63229
453130 7.35959
453340 5.35719
453550 3.61089
453760 2.99049
453970 2.63449
454180 2.69108
454390 2.99058
454600 3.20338
454810 3.55468
455020 3.74408
455230 3.45938
455440 2.87158
455650 2.81037
455860 3.17837
456070 3.32577
456280 3.80057
456500 3.21517
456710 3.28747
456920 3.53516
457130 4.06916
457340 4.81676
457560 4.75156
457770 4.47596
457980 4.50056
458190 4.68336
458410 4.64835
458620 4.58715
458830 4.37785
459050 5.21475
459260 4.92895
459470 4.88875
459690 5.16104
459900 5.39134
460120 4.51324
460330 4.37164
460540 4.54604
460760 4.80694
460970 4.69814
461190 4.39403
461400 4.98473
461620 5.32563
461830 4.99763
462050 4.42803
462270 4.40713
462480 4.09082
462700 4.41562
462910 4.37092
463130 4.62672
463350 5.09302
463560 5.46402
463780 5.98081
464000 6.18781
464210 6.35881
464430 6.25381
464650 5.70851
464870 6.26691
465080 6.22951
465300 6.29150
465520 6.59310
465740 7.07170
465960 6.40430
466170 6.30630
466390 5.15880
466610 4.92209
466830 4.64799
467050 4.26699
467270 3.78219
467490 4.11989
467710 4.94879
467930 5.60888
468150 7.04498
468370 7.29978
468590 6.72488
468810 6.22498
469030 6.40248
469250 6.20797
469470 5.43637
469690 4.80207
469910 4.54457
470130 4.21597
470350 4.46977
470570 4.85737
470800 5.25396
471020 5.56566
471240 5.24226
471460 4.99126
471680 4.37056
471910 4.34106
472130 4.34845
472350 4.57105
472580 4.69995
472800 4.77355
473020 4.57105
473240 4.74105
473470 5.25674
473690 5.91494
473920 6.20024
474140 5.98134
474360 5.81464
474590 5.47354
474810 5.25813
475040 5.19263
475260 5.73083
475490 6.20613
475710 6.73573
475940 6.51173
476160 5.72322
476390 5.01252
476610 5.30302
476840 6.07622
477070 6.21962
477290 6.59042
477520 7.02511
477750 6.80091
477970 5.29531
478200 4.52931
478430 4.31281
478650 4.35951
478880 3.94360
479110 3.77770
479340 4.10850
479560 4.50080
479790 4.94350
480020 4.87390
480250 5.23339
480480 5.42699
480710 5.44179
480940 5.25729
481160 4.60359
481390 4.50439
481620 4.29488
481850 4.15228
482080 4.50818
482310 3.83318
482540 3.64248
482770 3.29858
483000 3.19077
483230 2.49167
483460 2.02807
483690 1.85957
483930 2.35257
484160 2.92477
484390 3.75486
484620 4.77126
484850 5.31276
485080 5.24896
485320 4.97306
485550 3.84236
485780 3.21325
486010 2.62745
486240 2.62505
486480 3.75775
486710 4.76435
486940 5.25625
487180 5.48344
487410 5.53064
487640 4.92904
487880 4.79624
488110 4.79254
488350 4.34664
488580 4.41913
488820 4.05883
489050 4.35133
489280 4.31453
489520 4.40063
489760 4.76693
489990 4.99572
490230 5.37432
490460 5.80852
490700 6.11052
490930 6.82282
491170 6.76981
491410 6.09551
491640 5.44141
491880 5.89961
492120 5.62121
492350 5.20281
492590 5.18490
492830 5.23940
493070 5.66770
493300 5.98810
493540 5.59860
493780 6.10680
494020 5.85949
494260 4.91939
494490 4.38429
494730 3.97999
494970 3.57729
495210 3.66999
495450 4.53138
495690 5.01188
495930 5.15158
496170 4.89238
496410 4.43978
496650 5.28107
496890 5.34027
497130 5.36987
497370 4.51337
497610 4.02527
497850 3.56497
498090 3.77316
498340 3.72706
498580 3.91526
498820 3.56456
499060 3.44836
499300 3.44826
499550 2.86275
499790 2.88095
500000 2.56825
500030 2.52355
500270 2.00475
500520 1.60315
500760 2.35845
501000 3.52665
501250 4.73475
501490 4.80154
501730 4.40324
501980 4.49494
502220 4.72424
502470 4.14494
502710 3.09074
502960 2.22224
503200 1.34274
503450 1.78264
503690 2.97843
503940 3.57763
504180 4.49973
504430 5.24463
504670 5.77403
504920 5.90863
505170 5.91323
505410 5.46683
505660 5.13103
505910 4.90412
506150 4.68792
506400 4.28472
506650 4.38102
506900 4.10402
507140 4.32852
507390 4.39302
507640 4.58422
507890 4.12972
508140 3.75311
508390 4.01981
508640 4.26191
508880 4.95131
509130 4.49101
509380 4.39671
509630 4.53531
509880 4.78821
510130 4.73611
510380 4.14950
510630 4.06580
510880 4.62400
511140 5.95690
511390 6.18700
511640 5.68790
511890 4.97490
512140 4.35040
512390 4.49280
512640 4.70489
512900 5.09389
513150 5.03889
513400 5.33189
513650 4.60689
513910 3.98999
514160 4.12339
514410 4.44679
514670 5.04209
514920 5.36048
515170 5.51688
515430 4.97328
515680 4.77228
515930 4.52818
516190 4.63188
516440 4.18918
516700 3.76838
516950 2.87048
517210 2.28317
517460 2.57577
517720 3.96907
517980 4.89867
518230 5.75627
518490 4.96797
518740 4.81227
519000 4.49047
519260 4.17487
519510 4.43036
519770 4.14536
520030 4.04466
520290 3.37526
520540 3.30476
520800 3.55686
521060 3.90526
521320 4.07916
521580 4.23906
521840 4.13635
522090 4.37875
522350 4.31185
522610 4.01135
522870 2.99125
523130 2.55315
523390 2.63915
523650 2.86255
523910 4.68095
524170 5.84504
524430 5.80754
524690 4.54144
524960 3.87054
525220 3.26374
525480 3.26044
525740 3.62064
526000 3.91544
526260 4.09713
526530 4.83133
526790 4.85493
527050 4.43513
527310 3.73583
527580 3.16013
527840 2.69093
528100 2.49173
528370 1.77383
528630 1.81302
528890 1.36402
529160 1.31432
529420 1.53842
529690 2.72752
529950 3.50812
530220 4.80412
530480 5.49852
530750 6.13802
531010 6.15201
531280 5.65001
531540 4.50851
531810 3.77211
532080 3.63371
532340 3.08401
532610 2.56261
532880 2.45541
533140 2.17340
533410 2.60010
533680 3.80990
533950 4.83070
534210 5.21210
534480 5.39690
534750 5.34660
535020 5.48360
535290 4.83030
535560 4.25719
535830 4.13429
536100 3.83599
536370 3.38669
536640 3.11079
536900 3.68659
537180 3.70229
537450 3.07399
537720 2.74798
537990 2.79438
538260 3.16058
538530 3.21518
538800 3.67468
539070 3.49428
539340 3.64308
539620 4.17948
539890 4.65367
540160 4.85437
540430 4.56437
540710 4.44127
540980 4.13607
541250 3.80947
541530 4.26607
541800 4.30607
542070 3.02627
542350 2.35196
542620 2.17676
542900 2.66216
543170 3.16216
543450 3.36676
543720 3.24696
544000 3.26646
544270 3.28336
544550 3.01425
544820 3.10405
545100 3.11995
545380 2.75285
545650 2.73595
545930 2.32935
546210 1.52555
546480 1.94535
546760 2.59024
547040 3.45584
547320 4.36104
547590 4.77004
547870 5.19114
548150 5.23954
548430 5.17264
548710 5.10074
548990 4.33523
549270 3.13863
549550 2.93693
549830 3.10233
550110 3.23623
550390 3.49403
550670 3.28663
550950 3.11503
551230 2.78873
551510 3.27682
551790 3.73412
552070 3.83942
552350 3.19882
552640 2.59792
552920 2.03802
553200 2.23812
553480 2.45752
553770 3.10881
554050 2.51721
554330 2.15681
554620 1.94061
554900 2.77361
555180 3.18101
555470 3.55091
555750 4.27191
556040 4.56200
556320 4.32960
556610 4.02840
556890 4.31700
557180 5.33010
557460 5.61450
557750 4.97030
558030 3.67050
558320 2.70849
558610 2.36049
558890 2.05859
559180 2.10859
559470 2.60269
559750 3.16209
560040 3.15089
560330 3.12709
560620 4.04558
560910 5.12688
561200 5.71768
561480 5.77938
561770 5.72718
562060 5.39738
562350 5.14618
562640 5.12297
562930 4.88187
563220 4.82267
563510 4.92837
563800 4.87327
564090 4.83127
564380 5.33477
564670 5.07767
564970 4.15106
565260 4.63156
565550 5.41696
565840 5.59416
566130 5.17526
566430 4.87286
566720 4.52846
567010 4.13256
567310 3.58265
567600 3.44345
567890 3.56515
568190 3.43325
568480 3.41985
568770 3.78045
569070 3.62505
569360 2.78715
569660 2.33254
569950 2.60314
570250 3.53174
570550 4.02494
570840 3.92184
571140 3.69244
571430 4.25234
571730 4.37353
572030 4.29963
572330 4.02573
572620 4.18413
572920 3.79523
573220 3.65463
573520 3.87053
573810 4.23413
574110 4.19192
574410 3.47762
574710 2.97972
575010 2.98342
575310 3.51882
575610 4.11442
575910 4.65082
576210 5.29942
576510 5.42831
576810 4.96471
577110 4.79211
577410 4.59701
577710 4.75791
578010 4.92771
578320 4.87501
578620 4.21270
578920 4.21760
579220 3.81370
579530 3.85190
579830 3.52400
580130 3.86750
580440 3.92620
580740 4.32030
581040 4.08989
581350 3.41459
581650 2.92399
581960 2.56569
582260 1.97989
582570 1.60299
582870 1.85819
583180 2.12588
583480 3.38328
583790 4.37608
584100 4.70918
584400 5.17198
584710 5.45998
585020 5.16068
585320 5.88848
585630 5.75017
585940 5.12507
586250 4.63077
586560 4.28857
586860 4.51737
587170 4.46207
587480 4.44867
587790 4.55796
588100 4.21356
588410 4.03916
588720 3.70936
589030 3.13936
589340 2.83166
589650 2.95096
589960 2.76025
590270 3.30095
590580 3.72855
590900 3.61485
591210 3.53355
591520 3.40295
591830 3.51905
592150 4.01985
592460 4.61874
592770 4.17654
593090 4.03594
593400 4.36444
593710 4.88504
594030 5.36404
594340 5.02674
594660 4.31143
594970 4.25173
595290 4.19123
595600 4.34103
595920 4.34643
596230 3.95993
596550 3.31573
596870 2.76062
597180 2.92312
597500 3.18222
597820 2.89562
598130 2.62272
598450 2.92122
598770 3.40472
599090 3.95531
599410 4.45891
599730 4.23871
600000 4.50851
600040 4.54851
600360 4.88011
600680 5.27041
601000 4.31861
601320 3.58061
601640 3.39911
601960 3.68151
602280 3.57570
602610 3.20650
602930 3.03920
603250 3.54020
603570 4.16160
603890 4.24510
604210 4.84000
604540 4.60470
604860 4.04780
605180 3.39750
605510 2.80880
605830 2.37650
606150 2.04319
606480 1.71859
606800 1.68879
607130 2.10789
607450 3.01599
607780 3.61089
608100 3.58239
608430 3.52849
608750 3.35299
609080 4.02989
609410 4.23029
609730 3.95519
610060 3.77908
610390 3.70848
610720 3.26828
611040 3.25858
611370 2.92888
611700 3.42258
612030 3.46188
612360 2.87618
612690 2.77438
613020 2.86848
613340 3.59738
613670 3.81477
614000 3.71297
614340 3.88477
614670 4.21367
615000 4.14347
615330 4.01687
615660 3.96567
615990 3.77607
616320 3.53517
616660 3.72877
616990 4.02807
617320 3.90487
617650 3.73686
617990 3.52016
618320 3.66526
618660 3.80226
618990 4.30046
619320 4.96556
619660 4.98736
619990 4.84616
620330 4.76766
620660 5.16726
621000 5.25256
621340 5.58436
621670 5.04815
622010 4.79325
622350 4.39955
622680 4.34255
623020 4.74385
623360 4.46695
623700 4.05555
624040 4.15215
624370 4.25265
624710 4.18545
625050 3.49495
625390 3.66854
625730 4.17044
626070 4.87654
626410 4.52534
626750 3.90984
627090 4.19484
627430 4.00774
627770 4.07574
628120 4.69774
628460 5.90624
628800 5.80214
629140 5.30683
629490 4.92983
629830 4.49503
630170 4.22463
630520 4.13563
630860 3.73913
631200 3.88123
631550 3.57573
631890 3.36773
632240 3.18713
632580 4.47653
632930 5.12132
633270 4.66952
633620 3.58192
633970 3.03272
634310 2.97942
634660 3.77742
635010 4.13232
635350 3.79062
635700 4.25352
636050 4.04592
636400 4.26042
636750 3.53441
637100 3.54531
637450 3.85011
637800 4.55771
638150 4.36071
638500 3.70271
638850 2.85851
639200 3.09611
639550 3.74821
639900 3.97111
640250 3.07151
640600 2.64810
640950 2.32080
641310 2.70230
641660 3.29760
642010 3.85450
642370 3.34250
642720 3.59300
643070 5.16800
643430 6.07350
643780 5.56430
644140 4.75640
644490 3.62929
644850 3.28959
645200 3.05219
645560 2.83899
645920 3.30709
646270 3.90989
646630 4.36569
646990 4.27609
647340 4.52179
647700 4.13049
648060 4.24249
648420 4.19368
648780 3.86438
649130 3.46518
649490 3.89718
649850 3.54168
650210 2.66468
650570 2.80748
650930 3.25058
651290 4.52258
651660 5.20778
652020 5.47978
652380 5.36967
652740 5.56017
653100 5.25067
653470 4.96977
653830 4.15707
654190 4.22507
654550 4.88047
654920 4.61297
655280 4.25087
655650 4.45497
656010 4.35876
656380 3.73626
656740 3.62526
657110 3.72976
657470 3.96936
657840 4.35656
658210 4.61526
658570 4.25996
658940 3.16796
659310 2.64026
659670 1.65916
660040 1.54345
660410 1.60625
660780 2.08165
661150 2.87015
661520 3.85905
661890 5.02005
662260 5.19815
662630 5.74305
663000 5.96235
663370 5.42465
663740 5.22174
664110 4.87314
664480 4.56124
664850 4.18094
665230 3.79834
665600 4.21334
665970 4.10924
666350 3.58164
666720 3.26694
667090 3.96364
667470 4.45494
667840 4.64373
668220 5.24473
668590 5.61843
668970 5.37623
669340 4.69653
669720 4.78533
670100 4.65273
670470 4.88343
670850 4.86163
671230 5.16293
671600 4.50832
671980 4.11142
672360 3.92782
672740 3.47462
673120 3.14592
673500 3.33202
673880 3.28222
674260 3.60282
674640 3.08562
675020 2.50542
675400 2.12961
675780 3.02491
676160 3.48531
676540 3.95981
676930 3.67401
677310 3.65031
677690 4.11821
678080 4.81331
678460 5.30961
678840 5.04721
679230 4.82980
679610 4.79050
680000 4.56820
680380 4.45010
680770 4.31710
681150 3.86640
681540 4.03190
681920 3.94710
682310 4.02510
682700 4.21520
683090 5.14849
683470 4.98269
683860 4.61719
684250 4.33549
684640 4.02189
685030 3.70039
685420 3.83789
685810 4.07319
686200 4.17359
686590 4.26179
686980 4.24358
687370 4.98938
687760 5.08038
688150 5.33678
688540 4.80798
688940 4.64418
689330 4.68978
689720 4.10728
690120 3.46308
690510 3.53748
690900 3.69497
691300 3.39987
691690 3.03287
692090 2.94317
692480 3.11827
692880 3.71307
693280 3.68717
693670 3.80377
694070 4.22197
694470 4.51676
694860 4.75156
695260 4.65746
695660 4.22946
696060 3.88466
696460 3.93296
696860 3.65476
697260 3.53346
697660 2.99176
698060 3.45846
698460 3.88315
698860 4.45425
699260 4.58675
699660 4.60535
700000 4.31545
700060 4.26425
700470 3.68825
700870 2.99415
701270 2.96685
701670 3.19875
702080 2.99175
702480 2.68975
702890 2.75845
703290 2.83775
703700 2.78825
704100 3.57744
704510 5.27314
704910 6.04684
705320 5.76664
705730 4.65304
706130 4.56034
706540 4.20004
706950 4.06654
707360 4.59644
707770 5.33144
708180 5.23404
708590 4.64514
709000 4.60594
709410 4.14714
709820 4.11164
710230 3.55344
710640 3.48974
711050 3.75734
711460 3.91893
711870 3.96773
712290 4.34983
712700 4.51173
713110 4.38073
713530 4.08933
713940 3.79303
714350 3.53943
714770 3.47003
715180 3.95023
715600 4.49373
716010 4.35713
716430 3.86913
716850 3.71873
717260 3.86173
717680 3.31933
718100 2.94843
718520 3.26572
718940 3.40662
719350 3.62612
719770 3.65252
720190 4.06862
720610 3.52162
721030 2.90122
721450 2.71032
721870 2.73822
722300 3.16452
722720 3.46012
723140 3.51712
723560 2.98662
723980 2.62842
724410 3.11282
724830 3.25632
725250 3.00272
725680 2.46041
726100 2.36101
726530 2.36331
726950 3.19311
727380 3.64511
727810 4.36231
728230 4.32191
728660 4.34811
729090 4.52201
729510 4.37091
729940 4.51731
730370 4.25801
730800 4.07791
731230 4.05951
731660 3.92391
732090 3.96641
732520 4.17930
732950 4.37860
733380 4.87980
733810 5.22060
734240 5.02050
734670 4.15700
735110 3.37670
735540 2.85990
735970 3.13260
736410 3.02950
736840 2.96530
737280 3.17310
737710 3.45040
738150 3.45140
738580 3.89190
739020 4.53450
739450 4.56960
739890 4.22359
740330 3.68409
740770 3.87459
741200 3.71119
741640 3.71039
742080 3.54569
742520 3.80479
742960 4.15229
743400 4.15209
743840 4.38579
744280 4.48739
744720 4.24299
745160 3.55509
745600 3.31639
746050 3.10239
746490 3.09139
746930 3.13138
747380 3.11598
747820 3.54708
748260 4.01668
748710 4.04418
749150 4.26598
749600 4.01838
750040 3.73418
750490 3.14718
750940 2.46958
751380 2.81338
751830 2.98438
752280 3.49618
752730 3.26178
753180 2.89228
753620 2.43608
754070 2.69747
754520 3.11747
754970 4.10097
755420 4.47877
755880 3.78067
756330 3.18097
756780 2.78687
757230 2.62207
757680 2.31417
758140 1.91417
758590 2.22477
759040 3.01447
759500 3.41007
759950 3.22387
760410 2.46117
760860 2.57137
761320 2.84566
761780 3.18606
762230 3.28666
762690 3.67636
763150 3.43426
763610 3.47136
764060 3.71776
764520 3.83836
764980 3.69876
765440 3.56126
765900 3.43396
766360 3.82526
766820 3.95646
767280 3.78296
767750 3.63926
768210 3.88426
768670 3.67015
769130 3.15775
769600 2.84735
770060 2.40345
770520 2.56055
770990 3.14275
771450 4.00015
771920 4.77385
772390 5.15395
772850 4.56705
773320 3.82345
773790 3.52885
774250 3.51865
774720 4.45085
775190 4.95975
775660 4.83534
776130 4.72404
776600 4.55074
777070 4.42144
777540 4.54814
778010 4.23634
778480 4.10494
778950 3.46544
779420 2.91154
779900 2.95584
780370 3.13394
780840 3.43574
781320 3.70514
781790 3.59404
782270 2.89564
782740 2.70113
783220 2.47633
783690 2.34513
784170 2.47273
784650 3.48483
785120 4.07123
785600 4.25453
786080 3.66873
786560 3.55303
787040 3.29743
787520 3.67983
788000 3.69613
788480 3.55993
788960 2.85763
789440 2.62723
789920 3.35412
790410 4.50952
790890 4.77712
791370 4.78482
791850 4.06942
792340 3.57032
792820 2.94612
793310 3.29362
793790 4.05352
794280 4.31822
794770 3.88652
795250 2.90412
795300 2.82632
795740 2.14182
796230 2.25542
796720 2.88782
797200 3.22401
797690 3.11321
798180 2.68791
798670 2.53331
799160 2.92071
799650 3.52821
800000 3.76161
800140 3.85501
800640 3.85041
801130 3.59701
801620 3.33771
802110 3.62721
802610 3.76941
803100 3.79991
803600 3.12141
804090 3.20621
804590 3.07661
805080 2.81511
805580 2.94181
806070 3.29901
806570 3.82401
807070 3.75151
807570 3.54141
808070 3.63550
808560 3.80450
809060 3.90220
809560 3.74020
810060 3.18530
810570 3.25400
811070 3.65290
811570 3.84990
812070 3.64610
812570 3.11490
813080 2.75000
813580 2.31140
814080 2.34030
814590 2.18680
815090 2.10900
815600 1.94130
816110 2.00980
816610 2.79060
817120 3.00260
817630 3.48700
818130 4.31890
818640 4.37940
819150 4.28530
819660 4.22760
820170 4.30510
820680 4.32000
821190 3.25750
821700 2.80570
822210 2.43639
822730 2.19119
823240 1.87499
823750 1.80939
824270 2.90599
824780 4.25529
825290 4.16489
825810 3.91019
826320 3.76379
826840 3.74179
827360 3.96519
827870 4.37739
828390 3.34509
828910 2.79589
829430 2.54009
829950 2.74999
830470 3.68979
830990 4.22399
831510 3.83639
832030 3.33419
832550 3.37859
833070 3.70609
833590 3.93839
834120 4.38239
834640 4.98579
835160 4.88919
835690 4.15049
836210 4.00589
836740 3.95578
837260 3.61348
837790 3.14078
838320 3.39038
838840 3.79308
839370 3.94638
839900 4.19458
840430 4.34968
840960 3.87798
841490 4.04008
842020 4.44188
842550 4.34458
843080 3.65768
843610 3.41918
844140 3.31828
844680 3.08498
845210 3.01938
845740 3.14698
846280 3.47088
846810 4.06258
847350 4.08138
847880 3.56778
848420 3.32048
848960 3.63718
849490 3.81278
850030 3.87768
850570 3.39468
851110 3.39227
851650 3.35547
852190 3.04217
852730 3.18097
853270 2.71377
853810 2.70027
854350 3.21467
854900 3.08447
855440 2.93287
855980 2.62147
856530 2.62167
857070 2.94147
857620 3.46457
858160 3.77757
858710 3.71977
859260 4.21307
859800 4.30237
860350 4.29897
860900 3.83207
861450 3.83867
862000 3.70567
862550 3.60817
863100 3.60637
863650 3.28797
864200 3.45957
864750 3.57367
865300 3.18716
865860 3.08296
866410 2.82486
866960 2.20366
867520 2.09256
868070 2.44936
868630 2.88386
869190 3.14796
869740 3.16646
870300 3.94136
870860 4.09116
871410 3.90986
871970 4.01786
872530 3.77696
873090 3.42646
873650 3.28746
874210 3.46456
874780 3.95636
875340 3.82896
875900 3.92186
876460 4.12576
877030 4.20046
877590 4.24296
878160 4.70996
878720 4.71406
879290 4.65375
879850 4.70815
880420 4.67455
880990 4.00675
881560 3.35425
882130 3.63475
882690 3.81315
883260 3.84545
883830 3.69555
884410 4.12265
884980 4.54595
885550 4.44955
886120 3.88075
886690 3.14355
887270 3.06495
887840 2.95185
888420 3.30415
888990 3.66125
889570 3.27355
890140 3.65855
890720 3.78495
891300 3.77545
891880 3.67235
892460 3.87485
893040 4.79245
893610 4.36204
894200 3.58124
894780 3.23114
895360 3.47234
895940 3.62734
896520 3.92754
897110 4.17004
897690 3.90624
898270 3.51054
898860 3.15764
899440 3.29274
900000 3.35044
900030 3.35354
900620 3.49744
901200 3.86894
901790 3.86924
902380 3.25804
902970 2.67134
903560 2.53014
904150 2.72674
904740 3.23084
905330 3.00344
905920 3.06584
906510 3.04984
907110 3.11894
907700 3.88514
908290 4.14034
908890 3.60184
909480 3.20694
910080 2.94344
910680 3.61594
911270 4.22634
911870 4.35944
912470 3.80064
913070 2.92414
913670 2.24794
914270 2.20064
914870 2.52094
915470 2.89644
916070 3.68584
916670 3.88054
917280 3.78684
917880 3.78614
918490 3.85984
919090 4.31494
919700 4.32164
920300 4.12504
920910 3.68474
921510 3.29624
922120 3.33794
922730 3.98204
923340 4.71284
923950 4.49294
924560 4.16264
925170 3.54714
925780 3.00514
926390 2.87984
927010 3.50764
927620 3.35434
928230 3.42364
928850 3.19274
929460 2.70964
930080 3.02324
930690 3.46164
931310 3.38034
931930 3.40364
932550 3.61774
933170 3.50134
933790 3.09724
934400 2.90724
935030 2.82914
935650 2.81364
936270 2.73694
936890 2.77624
937510 2.81114
938140 3.19064
938760 3.87504
939390 3.56924
940010 3.79884
940640 3.63074
941270 3.35734
941890 3.17204
942520 2.85334
943150 2.99264
943780 3.23734
944410 3.00054
945040 2.61044
945670 3.17594
946300 3.05164
946930 2.47284
947570 2.52284
948200 2.96824
948840 3.80224
949470 4.06134
950110 3.46554
950740 2.94374
951380 3.00444
952020 2.95844
952660 3.16594
953290 3.16304
953930 3.33394
954570 3.46424
955210 3.61664
955860 4.00014
956500 4.19504
957140 4.52904
957780 4.87404
958430 4.07174
959070 3.86834
959720 3.80284
960360 4.40454
961010 4.38644
961660 4.14054
962310 4.14164
962950 4.05144
963600 3.75754
964250 3.13284
964900 3.05904
965560 2.96574
966210 3.18814
966860 3.15834
967510 3.33684
968170 3.61264
968820 3.90584
969480 3.29634
970130 2.68794
970790 2.92894
971450 3.14624
972100 3.59474
972760 3.43864
973420 3.67764
974080 3.44544
974740 4.11024
975400 4.81304
976070 4.75754
976730 3.98304
977390 3.51594
978050 3.32124
978720 3.08994
979380 3.35494
980050 3.40584
980720 2.83314
981380 3.28334
982050 3.63324
982720 3.42654
983390 3.16644
984060 3.37774
984730 3.56834
985400 3.61894
986070 3.90654
986750 3.80604
987420 3.67754
988090 3.70734
988770 4.17044
989450 4.50694
990120 4.11784
990800 3.41574
991480 3.01734
992150 3.03764
992830 2.81244
993510 2.45924
994190 3.16684
994870 4.15184
995560 4.26774
996240 3.43694
996920 3.46264
997610 3.89184
998290 4.27124
998980 4.56834
999660 4.54474
1.00000E+06 4.41254
1.00030E+06 4.29594
1.00100E+06 3.72794
1.00170E+06 3.15434
1.00240E+06 3.28384
1.00310E+06 3.37964
1.00380E+06 3.62304
1.00450E+06 3.95854
1.00520E+06 4.21144
1.00590E+06 3.81184
1.00660E+06 3.65674
1.00730E+06 3.64604
1.00800E+06 3.11774
1.00860E+06 2.99534
1.00930E+06 3.27185
1.01000E+06 3.76235
1.01070E+06 3.78755
1.01140E+06 3.98065
1.01210E+06 3.65425
1.01280E+06 3.26175
1.01350E+06 2.94455
1.01420E+06 2.64185
1.01490E+06 2.36565
1.01560E+06 2.52285
1.01630E+06 2.43805
1.01700E+06 2.82455
1.01780E+06 3.59235
1.01850E+06 3.77845
1.01920E+06 3.71395
1.01990E+06 3.67645
1.02060E+06 3.54815
1.02130E+06 3.31305
1.02200E+06 3.19615
1.02270E+06 3.44795
1.02340E+06 3.76155
1.02410E+06 3.31075
1.02480E+06 3.09455
1.02560E+06 3.11775
1.02630E+06 4.06375
1.02700E+06 4.17965
1.02770E+06 3.74105
1.02840E+06 3.66665
1.02910E+06 3.36216
1.02980E+06 2.95746
1.03060E+06 3.18066
1.03130E+06 3.31436
1.03200E+06 3.45096
1.03270E+06 3.49376
1.03340E+06 3.67746
1.03420E+06 3.83756
1.03490E+06 3.00196
1.03560E+06 2.94636
1.03630E+06 2.35396
1.03710E+06 2.49406
1.03780E+06 2.78106
1.03850E+06 3.36786
1.03920E+06 3.68526
1.04000E+06 3.95716
1.04070E+06 3.57236
1.04140E+06 3.57746
1.04220E+06 3.20566
1.04290E+06 2.84476
1.04360E+06 2.76436
1.04430E+06 3.06156
1.04510E+06 3.93676
1.04580E+06 4.19196
1.04660E+06 3.89906
1.04730E+06 3.48436
1.04800E+06 2.65686
1.04880E+06 2.31706
1.04950E+06 2.59367
1.05020E+06 3.06577
1.05100E+06 3.08807
1.05170E+06 3.66887
1.05250E+06 3.64287
1.05320E+06 3.71187
1.05390E+06 3.34657
1.05470E+06 3.05487
1.05540E+06 3.22007
1.05620E+06 3.00307
1.05690E+06 2.76017
1.05770E+06 2.83877
1.05840E+06 2.55667
1.05920E+06 2.61397
1.05990E+06 2.38197
1.06070E+06 2.80237
1.06140E+06 3.28317
1.06220E+06 3.56347
1.06290E+06 3.68857
1.06370E+06 3.25527
1.06440E+06 3.22917
1.06520E+06 3.20567
1.06590E+06 3.40397
1.06670E+06 3.58007
1.06740E+06 3.56757
1.06820E+06 3.37547
1.06900E+06 3.16878
1.06970E+06 2.83908
1.07050E+06 2.85918
1.07120E+06 3.22248
1.07200E+06 3.31178
1.07280E+06 3.62158
1.07350E+06 3.27628
1.07430E+06 3.31378
1.07510E+06 3.28968
1.07580E+06 3.35928
1.07660E+06 3.56138
1.07740E+06 3.16698
1.07810E+06 3.07818
1.07890E+06 3.20038
1.07970E+06 3.75768
1.08040E+06 3.66308
1.08120E+06 3.09348
1.08200E+06 2.94088
1.08280E+06 3.66358
1.08350E+06 3.71128
1.08430E+06 3.66258
1.08510E+06 3.38418
1.08590E+06 3.17688
1.08660E+06 2.65998
1.08740E+06 2.72778
1.08820E+06 3.32418
1.08900E+06 3.63279
1.08980E+06 3.05269
1.09050E+06 2.45319
1.09130E+06 2.96389
1.09210E+06 3.89429
1.09290E+06 4.30769
1.09370E+06 3.81239
1.09450E+06 3.33679
1.09520E+06 2.82739
1.09600E+06 2.33389
1.09680E+06 2.62269
1.09760E+06 2.87569
1.09840E+06 3.09579
1.09920E+06 3.49659
1.10000E+06 3.60899
1.10080E+06 3.39489
1.10160E+06 3.20618
1.10240E+06 3.19338
1.10320E+06 2.91698
1.10400E+06 2.49157
1.10480E+06 2.78397
1.10560E+06 3.03127
1.10630E+06 3.07776
1.10710E+06 2.98846
1.10790E+06 2.98836
1.10880E+06 3.14785
1.10960E+06 2.91365
1.11040E+06 3.27104
1.11120E+06 3.47174
1.11200E+06 3.28924
1.11280E+06 2.99723
1.11360E+06 2.82923
1.11440E+06 3.08193
1.11520E+06 3.09622
1.11600E+06 3.63552
1.11680E+06 3.74142
1.11760E+06 3.71581
1.11800E+06 3.78181
1.11840E+06 3.84761
1.11850E+06 3.81701
1.11873E+06 3.74785
1.11920E+06 3.60306
1.12010E+06 3.58114
1.12090E+06 4.03817
1.12170E+06 4.42530
1.12250E+06 4.11463
1.12330E+06 3.48945
1.12410E+06 3.71768
1.12500E+06 4.14466
1.12580E+06 3.77179
1.12660E+06 3.56422
1.12740E+06 3.39814
1.12820E+06 3.71607
1.12910E+06 3.77535
1.12990E+06 3.75268
1.13070E+06 3.48761
1.13150E+06 4.09864
1.13240E+06 4.25422
1.13320E+06 3.97024
1.13400E+06 3.51557
1.13490E+06 3.35215
1.13570E+06 3.29428
1.13650E+06 3.10061
1.13740E+06 3.31699
1.13820E+06 3.26772
1.13900E+06 3.12604
1.13990E+06 3.26823
1.14070E+06 3.24395
1.14150E+06 3.44468
1.14240E+06 3.43656
1.14320E+06 3.44999
1.14410E+06 3.17797
1.14490E+06 3.36910
1.14570E+06 3.65893
1.14660E+06 3.47601
1.14740E+06 3.39953
1.14830E+06 3.25962
1.14910E+06 3.13284
1.15000E+06 3.26062
1.15080E+06 3.55655
1.15170E+06 3.50503
1.15250E+06 3.03906
1.15340E+06 3.34394
1.15420E+06 3.02047
1.15510E+06 2.82075
1.15590E+06 2.69488
1.15680E+06 2.83326
1.15760E+06 3.60509
1.15850E+06 4.20637
1.15930E+06 4.28800
1.16020E+06 3.51138
1.16100E+06 3.12700
1.16190E+06 3.06979
1.16280E+06 3.40457
1.16360E+06 3.12319
1.16450E+06 3.29288
1.16540E+06 3.42246
1.16620E+06 3.79348
1.16710E+06 3.55186
1.16800E+06 3.76335
1.16880E+06 3.69627
1.16970E+06 3.76535
1.17060E+06 3.57994
1.17140E+06 3.19526
1.17230E+06 3.24514
1.17320E+06 2.95533
1.17400E+06 3.23145
1.17490E+06 3.13943
1.17580E+06 3.14012
1.17670E+06 2.89610
1.17750E+06 2.78242
1.17840E+06 3.05690
1.17930E+06 3.56429
1.18020E+06 3.44697
1.18110E+06 3.08055
1.18190E+06 3.20208
1.18280E+06 3.14256
1.18370E+06 3.09174
1.18460E+06 3.01492
1.18550E+06 3.11620
1.18640E+06 3.18028
1.18730E+06 3.74196
1.18810E+06 3.89659
1.18900E+06 4.07447
1.18990E+06 3.97935
1.19080E+06 4.18543
1.19170E+06 3.93311
1.19260E+06 3.44190
1.19350E+06 3.52358
1.19440E+06 3.22566
1.19530E+06 3.23644
1.19620E+06 3.30932
1.19710E+06 3.26230
1.19800E+06 3.59508
1.19890E+06 3.71056
1.19980E+06 4.09734
1.20000E+06 4.06405
1.20070E+06 3.94805
1.20160E+06 3.52324
1.20250E+06 3.44722
1.20340E+06 3.34811
1.20430E+06 3.14939
1.20520E+06 3.08228
1.20610E+06 3.16456
1.20710E+06 3.41919
1.20800E+06 3.43988
1.20890E+06 3.72436
1.20980E+06 3.59865
1.21050E+06 3.50845
1.21067E+06 3.48612
1.21070E+06 3.48270
1.21100E+06 3.47745
1.21160E+06 3.46526
1.21250E+06 3.73912
1.21350E+06 3.30777
1.21440E+06 3.09653
1.21530E+06 2.75939
1.21620E+06 2.63635
1.21710E+06 2.97521
1.21810E+06 2.52726
1.21900E+06 2.45382
1.21990E+06 2.78258
1.22080E+06 2.98674
1.22180E+06 3.14629
1.22270E+06 3.63825
1.22360E+06 3.72701
1.22450E+06 3.53297
1.22550E+06 2.93392
1.22640E+06 2.91178
1.22730E+06 2.91544
1.22830E+06 2.99939
1.22920E+06 3.23155
1.23010E+06 3.44091
1.23110E+06 3.64536
1.23200E+06 4.40612
1.23300E+06 4.07527
1.23390E+06 3.64603
1.23480E+06 3.66629
1.23580E+06 3.28494
1.23670E+06 3.21300
1.23770E+06 3.23165
1.23860E+06 3.41541
1.23960E+06 3.27475
1.24050E+06 3.63221
1.24150E+06 4.20196
1.24240E+06 4.34362
1.24340E+06 4.22717
1.24430E+06 4.07573
1.24530E+06 3.79838
1.24620E+06 3.71074
1.24720E+06 3.73138
1.24820E+06 4.22343
1.24910E+06 4.11539
1.25010E+06 3.57634
1.25100E+06 3.27390
1.25200E+06 3.26355
1.25300E+06 2.98579
1.25390E+06 3.14935
1.25490E+06 3.12700
1.25580E+06 3.16476
1.25680E+06 3.09751
1.25780E+06 3.10165
1.25880E+06 2.96420
1.25970E+06 3.36226
1.26070E+06 3.90471
1.26170E+06 3.96265
1.26260E+06 3.44752
1.26360E+06 2.74086
1.26460E+06 2.94421
1.26560E+06 3.33166
1.26650E+06 3.36162
1.26750E+06 3.57346
1.26850E+06 3.22041
1.26950E+06 3.19596
1.27050E+06 3.47800
1.27150E+06 3.47875
1.27240E+06 3.16211
1.27340E+06 3.85066
1.27440E+06 3.88490
1.27540E+06 3.67965
1.27640E+06 3.82749
1.27740E+06 4.27524
1.27840E+06 4.10459
1.27940E+06 4.09573
1.28040E+06 4.22948
1.28140E+06 3.94323
1.28240E+06 3.86377
1.28340E+06 3.19392
1.28440E+06 3.25476
1.28540E+06 3.18621
1.28640E+06 3.35536
1.28740E+06 3.70140
1.28840E+06 3.40895
1.28940E+06 3.40650
1.29040E+06 3.51434
1.29140E+06 3.27309
1.29240E+06 3.41203
1.29340E+06 3.78968
1.29440E+06 3.64193
1.29540E+06 3.49327
1.29640E+06 3.70102
1.29750E+06 3.71095
1.29850E+06 3.59570
1.29950E+06 3.65104
1.30000E+06 3.69157
1.30050E+06 3.73231
1.30150E+06 3.92598
1.30250E+06 3.08456
1.30360E+06 2.71031
1.30460E+06 2.53679
1.30560E+06 2.88907
1.30660E+06 3.11145
1.30770E+06 3.61759
1.30870E+06 3.40167
1.30970E+06 3.07895
1.31080E+06 2.85850
1.31180E+06 3.09558
1.31280E+06 3.19236
1.31380E+06 3.31334
1.31390E+06 3.32541
1.31400E+06 3.27957
1.31401E+06 3.27407
1.31490E+06 2.86744
1.31590E+06 3.04543
1.31700E+06 3.00945
1.31800E+06 3.01964
1.31900E+06 3.50083
1.32010E+06 3.69915
1.32110E+06 3.24534
1.32220E+06 2.84985
1.32320E+06 2.40424
1.32430E+06 2.60626
1.32530E+06 3.03005
1.32640E+06 2.89726
1.32740E+06 3.15586
1.32850E+06 3.37917
1.32950E+06 3.19906
1.33060E+06 3.10737
1.33160E+06 3.64787
1.33270E+06 3.96798
1.33370E+06 3.63847
1.33480E+06 3.42179
1.33580E+06 3.29188
1.33690E+06 3.04129
1.33800E+06 2.88580
1.33900E+06 3.53260
1.34010E+06 3.44981
1.34120E+06 3.51372
1.34220E+06 3.55241
1.34330E+06 3.43023
1.34440E+06 3.20304
1.34540E+06 2.78523
1.34650E+06 3.00525
1.34760E+06 3.30856
1.34870E+06 3.29847
1.34970E+06 3.30706
1.35080E+06 2.85578
1.35190E+06 2.58969
1.35300E+06 2.49590
1.35410E+06 2.65191
1.35510E+06 3.01031
1.35620E+06 2.97902
1.35730E+06 3.63873
1.35840E+06 3.62364
1.35950E+06 3.51926
1.36060E+06 3.69437
1.36170E+06 4.03868
1.36280E+06 3.84769
1.36390E+06 3.71211
1.36490E+06 3.43280
1.36600E+06 3.33361
1.36710E+06 3.16493
1.36820E+06 2.70834
1.36930E+06 3.05935
1.37040E+06 3.32566
1.37150E+06 3.56868
1.37270E+06 3.29431
1.37380E+06 3.00652
1.37490E+06 3.17753
1.37600E+06 3.57404
1.37710E+06 3.64626
1.37820E+06 3.63097
1.37930E+06 3.36498
1.38040E+06 3.16969
1.38150E+06 3.13391
1.38260E+06 2.54652
1.38380E+06 2.48065
1.38490E+06 2.94706
1.38600E+06 3.28308
1.38710E+06 3.44049
1.38820E+06 3.62610
1.38940E+06 3.43883
1.39050E+06 3.37795
1.39160E+06 3.66906
1.39280E+06 3.37819
1.39390E+06 3.21020
1.39500E+06 3.61031
1.39610E+06 3.49253
1.39730E+06 3.19426
1.39840E+06 2.87857
1.39960E+06 2.72020
1.40000E+06 2.73128
1.40070E+06 2.75071
1.40180E+06 3.21518
1.40300E+06 3.26471
1.40410E+06 3.36478
1.40530E+06 3.14511
1.40640E+06 3.33928
1.40750E+06 3.23175
1.40870E+06 3.38398
1.40980E+06 3.04595
1.41100E+06 2.69858
1.41210E+06 2.81795
1.41330E+06 3.10388
1.41450E+06 3.34651
1.41560E+06 3.47798
1.41680E+06 3.42681
1.41790E+06 3.66858
1.41910E+06 3.28901
1.42030E+06 2.74345
1.42140E+06 2.97172
1.42260E+06 3.24975
1.42370E+06 3.25072
1.42490E+06 3.14015
1.42610E+06 3.43858
1.42730E+06 3.58361
1.42840E+06 3.28608
1.42960E+06 3.37101
1.43080E+06 3.08624
1.43200E+06 2.74297
1.43310E+06 3.02044
1.43430E+06 3.21517
1.43550E+06 3.15130
1.43670E+06 3.09093
1.43790E+06 3.08037
1.43900E+06 2.88524
1.44020E+06 3.33787
1.44140E+06 3.21090
1.44260E+06 3.21343
1.44380E+06 3.27826
1.44500E+06 3.06909
1.44620E+06 2.79372
1.44740E+06 2.60555
1.44860E+06 2.67458
1.44980E+06 3.15141
1.45100E+06 3.06954
1.45220E+06 3.42838
1.45340E+06 3.47131
1.45460E+06 3.08724
1.45580E+06 3.01507
1.45700E+06 2.87880
1.45800E+06 3.03911
1.45820E+06 3.07123
1.45830E+06 3.06939
1.45854E+06 3.06501
1.45940E+06 3.04978
1.46060E+06 3.01949
1.46180E+06 2.89549
1.46310E+06 2.91507
1.46430E+06 3.06398
1.46550E+06 2.96798
1.46670E+06 3.13128
1.46790E+06 3.34679
1.46920E+06 3.68467
1.47040E+06 3.31227
1.47160E+06 2.60188
1.47280E+06 2.54708
1.47410E+06 3.04306
1.47530E+06 3.12236
1.47650E+06 3.40567
1.47780E+06 3.36815
1.47900E+06 3.14325
1.48020E+06 3.60595
1.48150E+06 3.38983
1.48270E+06 3.21274
1.48360E+06 3.12392
1.48387E+06 3.09711
1.48390E+06 3.09437
1.48400E+06 3.10190
1.48520E+06 3.18681
1.48640E+06 3.42182
1.48770E+06 3.67446
1.48890E+06 3.70538
1.49020E+06 3.70042
1.49140E+06 3.29023
1.49270E+06 3.03517
1.49390E+06 2.97788
1.49520E+06 2.69572
1.49640E+06 2.88933
1.49770E+06 3.14977
1.49900E+06 3.38891
1.50000E+06 3.57707
1.50020E+06 3.61465
1.50150E+06 3.67895
1.50280E+06 3.61085
1.50400E+06 3.41566
1.50530E+06 3.28445
1.50660E+06 2.88245
1.50686E+06 2.90473
1.50700E+06 2.91726
1.50780E+06 2.98656
1.50910E+06 3.02810
1.51040E+06 3.29363
1.51160E+06 3.30298
1.51290E+06 3.06572
1.51420E+06 2.96726
1.51550E+06 2.89050
1.51680E+06 2.97624
1.51810E+06 3.31268
1.51930E+06 3.31573
1.52060E+06 3.04797
1.52190E+06 3.22620
1.52320E+06 3.27814
1.52450E+06 3.14018
1.52580E+06 3.14942
1.52710E+06 3.32476
1.52840E+06 3.31580
1.52970E+06 3.10974
1.53100E+06 3.10377
1.53230E+06 2.96781
1.53360E+06 3.06575
1.53490E+06 3.16359
1.53620E+06 3.12733
1.53750E+06 3.05077
1.53880E+06 3.12090
1.54010E+06 3.20354
1.54150E+06 2.96907
1.54280E+06 3.31551
1.54410E+06 3.38025
1.54540E+06 3.46758
1.54670E+06 3.20152
1.54800E+06 3.15276
1.54940E+06 3.22389
1.55070E+06 2.90323
1.55200E+06 2.59786
1.55340E+06 2.96169
1.55470E+06 3.22443
1.55600E+06 3.34027
1.55730E+06 3.15681
1.55870E+06 3.90983
1.56000E+06 4.08077
1.56140E+06 3.95440
1.56270E+06 3.54104
1.56400E+06 3.67007
1.56540E+06 3.73030
1.56670E+06 3.25324
1.56810E+06 3.33186
1.56940E+06 3.51400
1.57080E+06 3.25543
1.57210E+06 3.16987
1.57350E+06 3.40459
1.57490E+06 3.60842
1.57620E+06 3.67806
1.57760E+06 4.10098
1.57890E+06 3.95992
1.58030E+06 3.76815
1.58170E+06 3.60957
1.58300E+06 3.59341
1.58440E+06 3.18684
1.58580E+06 3.00076
1.58710E+06 2.76360
1.58850E+06 3.09643
1.58990E+06 3.03706
1.59130E+06 3.16568
1.59270E+06 3.69551
1.59400E+06 3.99545
1.59540E+06 3.95937
1.59680E+06 3.76660
1.59820E+06 3.39522
1.59960E+06 3.13535
1.60000E+06 3.11320
1.60100E+06 3.05792
1.60240E+06 2.92261
1.60380E+06 2.83220
1.60520E+06 2.95609
1.60660E+06 3.27628
1.60800E+06 3.51477
1.60940E+06 3.71186
1.61080E+06 3.95365
1.61220E+06 3.58244
1.61360E+06 3.25843
1.61500E+06 3.24442
1.61640E+06 3.76761
1.61780E+06 3.79300
1.61920E+06 3.34049
1.62060E+06 3.40308
1.62210E+06 3.39276
1.62350E+06 3.23535
1.62490E+06 3.40054
1.62630E+06 3.48483
1.62770E+06 3.49622
1.62920E+06 3.42600
1.63060E+06 3.28319
1.63200E+06 3.11248
1.63350E+06 3.14066
1.63490E+06 3.03515
1.63630E+06 3.70064
1.63780E+06 3.37652
1.63920E+06 3.37441
1.64070E+06 3.09319
1.64210E+06 3.18578
1.64360E+06 3.34586
1.64500E+06 3.65505
1.64650E+06 3.48893
1.64790E+06 3.38382
1.64940E+06 3.38270
1.65080E+06 3.31309
1.65230E+06 3.26808
1.65370E+06 3.82797
1.65520E+06 3.52445
1.65670E+06 3.26233
1.65810E+06 3.41652
1.65960E+06 3.44070
1.66110E+06 2.89558
1.66250E+06 3.07377
1.66400E+06 3.10745
1.66550E+06 3.32643
1.66700E+06 3.41102
1.66840E+06 3.18921
1.66990E+06 3.03989
1.67140E+06 3.05577
1.67290E+06 3.30145
1.67440E+06 3.50823
1.67590E+06 3.12671
1.67740E+06 3.43060
1.67890E+06 3.60058
1.68040E+06 3.21646
1.68190E+06 3.29064
1.68340E+06 3.47232
1.68490E+06 3.48400
1.68640E+06 3.55229
1.68790E+06 3.49617
1.68940E+06 3.37605
1.69090E+06 3.67393
1.69240E+06 3.50961
1.69390E+06 3.40549
1.69540E+06 3.33618
1.69690E+06 3.39326
1.69850E+06 3.10203
1.70000E+06 3.33101
1.70150E+06 2.97223
1.70300E+06 2.84376
1.70460E+06 2.97763
1.70610E+06 3.03265
1.70760E+06 3.35087
1.70920E+06 3.45974
1.71070E+06 3.56786
1.71220E+06 3.45438
1.71380E+06 3.44025
1.71530E+06 3.32687
1.71690E+06 3.26344
1.71840E+06 3.59087
1.72000E+06 3.60954
1.72150E+06 3.40186
1.72310E+06 3.48423
1.72460E+06 3.12135
1.72620E+06 3.25022
1.72770E+06 3.34244
1.72930E+06 3.09581
1.73090E+06 2.97618
1.73240E+06 3.11290
1.73400E+06 3.39137
1.73560E+06 3.25404
1.73710E+06 3.26336
1.73870E+06 3.26223
1.74030E+06 3.26960
1.74190E+06 3.37757
1.74340E+06 2.88549
1.74500E+06 2.76786
1.74660E+06 2.85723
1.74820E+06 2.98540
1.74980E+06 3.10667
1.75000E+06 3.05127
1.75140E+06 2.66354
1.75300E+06 2.82301
1.75460E+06 3.42888
1.75620E+06 3.93725
1.75780E+06 3.74542
1.75940E+06 3.59149
1.76100E+06 2.92376
1.76260E+06 2.90863
1.76420E+06 3.05100
1.76580E+06 2.91037
1.76740E+06 2.82494
1.76900E+06 2.85461
1.77070E+06 2.80283
1.77230E+06 2.67360
1.77390E+06 2.81807
1.77400E+06 2.83532
1.77410E+06 2.85236
1.77436E+06 2.89650
1.77550E+06 3.09367
1.77710E+06 3.01478
1.77880E+06 3.33468
1.78040E+06 3.53839
1.78200E+06 3.12379
1.78370E+06 3.47789
1.78530E+06 3.18330
1.78700E+06 3.23769
1.78860E+06 3.31430
1.79020E+06 3.37181
1.79190E+06 3.46550
1.79350E+06 3.58641
1.79520E+06 3.18760
1.79680E+06 3.14141
1.79850E+06 3.23991
1.80000E+06 3.79823
1.80020E+06 3.87258
1.80180E+06 3.83646
1.80350E+06 3.53561
1.80510E+06 3.20108
1.80680E+06 3.07353
1.80850E+06 3.07718
1.81020E+06 3.32923
1.81180E+06 3.48910
1.81350E+06 3.47165
1.81520E+06 3.26750
1.81690E+06 2.76105
1.81860E+06 2.66220
1.82020E+06 2.93677
1.82190E+06 3.47552
1.82360E+06 3.36597
1.82530E+06 3.37912
1.82700E+06 3.31837
1.82870E+06 3.37842
1.83040E+06 3.31557
1.83210E+06 3.50092
1.83380E+06 3.56697
1.83550E+06 3.28372
1.83720E+06 3.41487
1.83890E+06 3.46712
1.84070E+06 3.58115
1.84240E+06 3.56620
1.84410E+06 3.66925
1.84580E+06 3.63720
1.84750E+06 3.59605
1.84930E+06 4.06878
1.85100E+06 3.88833
1.85270E+06 3.69008
1.85450E+06 3.58771
1.85620E+06 3.20616
1.85790E+06 2.92931
1.85970E+06 3.08464
1.86140E+06 3.34349
1.86320E+06 3.34081
1.86490E+06 3.43186
1.86670E+06 3.46649
1.86840E+06 3.28954
1.87020E+06 3.21717
1.87190E+06 3.19562
1.87370E+06 2.95195
1.87550E+06 3.19158
1.87720E+06 3.43903
1.87900E+06 3.46636
1.88080E+06 2.87849
1.88260E+06 2.68722
1.88430E+06 2.97577
1.88610E+06 2.76670
1.88790E+06 2.84723
1.88970E+06 3.49746
1.89150E+06 3.76269
1.89320E+06 3.65224
1.89500E+06 3.63927
1.89680E+06 3.58230
1.89860E+06 3.28533
1.90000E+06 3.35954
1.90040E+06 3.38068
1.90220E+06 3.20826
1.90400E+06 3.29775
1.90580E+06 3.58043
1.90770E+06 3.51208
1.90950E+06 3.42466
1.91130E+06 3.27164
1.91310E+06 3.51303
1.91490E+06 3.23991
1.91670E+06 3.43989
1.91860E+06 3.45834
1.92040E+06 3.40812
1.92220E+06 2.99331
1.92410E+06 3.22255
1.92590E+06 3.35273
1.92770E+06 3.23712
1.92960E+06 3.17046
1.93140E+06 3.40585
1.93330E+06 3.47269
1.93510E+06 3.65677
1.93700E+06 3.23292
1.93880E+06 3.05970
1.94070E+06 3.13205
1.94250E+06 3.22883
1.94440E+06 3.09067
1.94630E+06 2.95982
1.94810E+06 3.11190
1.95000E+06 3.34885
1.95190E+06 3.22809
1.95370E+06 3.48937
1.95560E+06 3.10932
1.95750E+06 2.91916
1.95940E+06 3.12781
1.96130E+06 3.47635
1.96320E+06 3.31359
1.96500E+06 3.24608
1.96690E+06 3.41872
1.96880E+06 3.15297
1.97070E+06 3.38081
1.97260E+06 3.35945
1.97450E+06 3.12290
1.97650E+06 3.11940
1.97840E+06 3.27055
1.98030E+06 3.14579
1.98220E+06 3.12983
1.98410E+06 3.14758
1.98600E+06 3.15402
1.98800E+06 3.10553
1.98990E+06 3.37787
1.99180E+06 3.21331
1.99380E+06 3.20802
1.99570E+06 3.36706
1.99760E+06 3.33801
1.99960E+06 3.33361
2.00000E+06 3.24485
2.00150E+06 2.91229
2.00350E+06 3.23531
2.00540E+06 3.06469
2.00740E+06 3.13880
2.00930E+06 3.24298
2.01130E+06 3.10020
2.01320E+06 3.07088
2.01520E+06 3.46689
2.01720E+06 3.26691
2.01910E+06 3.21089
2.02110E+06 2.86480
2.02310E+06 2.93282
2.02510E+06 2.87384
2.02710E+06 2.96275
2.02900E+06 3.38093
2.03100E+06 3.00005
2.03300E+06 3.29576
2.03500E+06 3.38928
2.03700E+06 3.37270
2.03900E+06 3.29461
2.04100E+06 2.83483
2.04300E+06 2.72854
2.04500E+06 3.35106
2.04700E+06 3.11777
2.04910E+06 3.42913
2.05110E+06 3.21564
2.05310E+06 3.06426
2.05510E+06 3.32647
2.05710E+06 2.88209
2.05920E+06 3.27514
2.06120E+06 3.34276
2.06320E+06 3.02117
2.06530E+06 3.18902
2.06730E+06 3.49674
2.06940E+06 3.54029
2.07140E+06 3.72681
2.07350E+06 3.56436
2.07550E+06 3.41278
2.07760E+06 3.59873
2.07960E+06 3.15974
2.08170E+06 3.27799
2.08380E+06 3.06925
2.08580E+06 3.02726
2.08790E+06 3.13381
2.09000E+06 3.27987
2.09210E+06 3.19772
2.09410E+06 2.92803
2.09600E+06 3.17671
2.09620E+06 3.20278
2.09658E+06 3.21076
2.09830E+06 3.24771
2.10000E+06 3.39438
2.10040E+06 3.42882
2.10250E+06 3.47656
2.10460E+06 3.49670
2.10670E+06 3.69954
2.10880E+06 3.55278
2.11090E+06 3.62842
2.11300E+06 3.21286
2.11510E+06 3.60750
2.11720E+06 3.47494
2.11940E+06 3.18132
2.12150E+06 2.86996
2.12300E+06 2.88989
2.12330E+06 2.89380
2.12360E+06 2.89760
2.12364E+06 2.89784
2.12570E+06 2.91258
2.12790E+06 3.24924
2.13000E+06 3.36273
2.13210E+06 3.53882
2.13430E+06 3.44069
2.13640E+06 3.27368
2.13860E+06 3.12365
2.14070E+06 2.98064
2.14290E+06 3.27180
2.14500E+06 3.52239
2.14720E+06 3.61766
2.14940E+06 3.45352
2.15150E+06 3.34781
2.15370E+06 3.35898
2.15590E+06 3.25325
2.15810E+06 3.18881
2.16020E+06 2.88380
2.16240E+06 3.36297
2.16460E+06 3.38813
2.16680E+06 3.19310
2.16900E+06 3.01527
2.17120E+06 2.86963
2.17340E+06 2.85360
2.17560E+06 2.95716
2.17780E+06 3.23953
2.18000E+06 3.29450
2.18220E+06 3.49956
2.18440E+06 3.17543
2.18670E+06 3.34907
2.18890E+06 2.78104
2.18900E+06 2.79031
2.18930E+06 2.81764
2.18965E+06 2.84919
2.19110E+06 2.98474
2.19330E+06 3.18671
2.19560E+06 3.13970
2.19780E+06 3.00397
2.20000E+06 3.28284
2.20010E+06 3.29555
2.20230E+06 2.77437
2.20460E+06 3.06209
2.20680E+06 3.32111
2.20910E+06 3.18353
2.21130E+06 3.51025
2.21360E+06 3.32718
2.21580E+06 3.36869
2.21810E+06 3.40182
2.21900E+06 3.34107
2.21940E+06 3.31379
2.21975E+06 3.28970
2.22040E+06 3.24612
2.22270E+06 3.20549
2.22490E+06 3.05239
2.22720E+06 3.25016
2.22950E+06 3.25483
2.23180E+06 3.30910
2.23410E+06 3.45077
2.23640E+06 3.27353
2.23870E+06 3.28390
2.24100E+06 3.41237
2.24280E+06 3.28132
2.24300E+06 3.26683
2.24330E+06 3.24505
2.24560E+06 3.05640
2.24790E+06 3.30215
2.25000E+06 3.29199
2.25030E+06 3.29061
2.25260E+06 3.16796
2.25490E+06 3.16671
2.25720E+06 3.21136
2.25960E+06 3.40781
2.26190E+06 3.49796
2.26420E+06 3.34091
2.26660E+06 3.39217
2.26890E+06 3.24982
2.27130E+06 2.99188
2.27360E+06 3.04042
2.27600E+06 3.29748
2.27840E+06 3.00074
2.28070E+06 3.20249
2.28310E+06 3.22164
2.28550E+06 3.31130
2.28780E+06 3.40885
2.29020E+06 3.44981
2.29260E+06 3.02776
2.29500E+06 3.40482
2.29740E+06 3.44017
2.29980E+06 3.44953
2.30000E+06 3.43394
2.30220E+06 3.26276
2.30460E+06 3.04526
2.30700E+06 3.33986
2.30940E+06 3.47175
2.31180E+06 3.17375
2.31420E+06 3.30665
2.31670E+06 3.37329
2.31910E+06 3.00829
2.32150E+06 3.40819
2.32400E+06 3.20003
2.32640E+06 3.23403
2.32880E+06 3.54133
2.33130E+06 3.07777
2.33370E+06 3.33796
2.33620E+06 3.32460
2.33860E+06 3.68250
2.34110E+06 3.78544
2.34360E+06 3.63688
2.34600E+06 3.40628
2.34850E+06 3.33672
2.35100E+06 3.06696
2.35350E+06 3.24630
2.35590E+06 3.15290
2.35840E+06 3.28734
2.36090E+06 3.17458
2.36340E+06 3.02172
2.36590E+06 3.26266
2.36840E+06 3.26830
2.37090E+06 3.13254
2.37340E+06 3.29668
2.37600E+06 3.27066
2.37850E+06 3.54930
2.38100E+06 3.12704
2.38350E+06 2.97488
2.38610E+06 3.16167
2.38860E+06 3.14761
2.39110E+06 3.25235
2.39370E+06 3.07463
2.39620E+06 3.24417
2.39880E+06 3.17805
2.40000E+06 3.40805
2.40130E+06 3.65722
2.40390E+06 3.18735
2.40650E+06 3.70979
2.40900E+06 3.39372
2.41160E+06 3.35565
2.41420E+06 3.36859
2.41680E+06 3.46383
2.41930E+06 3.32126
2.42190E+06 3.33549
2.42450E+06 3.12703
2.42710E+06 3.13826
2.42970E+06 3.10970
2.43230E+06 3.18733
2.43490E+06 3.23667
2.43560E+06 3.31401
2.43599E+06 3.35734
2.43600E+06 3.35823
2.43760E+06 3.53497
2.44020E+06 3.15958
2.44280E+06 3.27918
2.44540E+06 3.17689
2.44810E+06 3.04478
2.45070E+06 3.23469
2.45330E+06 3.43629
2.45600E+06 3.00628
2.45860E+06 3.28339
2.46130E+06 3.39307
2.46390E+06 3.38088
2.46660E+06 3.51467
2.46930E+06 3.33445
2.47190E+06 3.15676
2.47460E+06 3.34734
2.47730E+06 3.24243
2.48000E+06 3.24781
2.48270E+06 3.42040
2.48530E+06 3.38491
2.48800E+06 3.47229
2.49070E+06 3.37828
2.49340E+06 3.55466
2.49620E+06 3.24873
2.49890E+06 3.15291
2.50000E+06 3.17726
2.50160E+06 3.21292
2.50430E+06 2.89929
2.50700E+06 3.40837
2.50980E+06 3.58995
2.51250E+06 3.46572
2.51520E+06 3.46819
2.51800E+06 3.68758
2.52000E+06 3.57868
2.52030E+06 3.56231
2.52070E+06 3.54045
2.52072E+06 3.54036
2.52350E+06 3.52698
2.52620E+06 3.22798
2.52900E+06 3.54602
2.53180E+06 3.47156
2.53460E+06 3.15579
2.53730E+06 3.01920
2.54010E+06 3.20783
2.54290E+06 3.05877
2.54570E+06 3.36031
2.54850E+06 3.64205
2.55130E+06 3.48438
2.55410E+06 3.74242
2.55690E+06 3.50136
2.55970E+06 3.32920
2.56250E+06 3.34844
2.56530E+06 3.31197
2.56820E+06 3.33175
2.57100E+06 3.41399
2.57380E+06 3.43392
2.57670E+06 3.48700
2.57950E+06 3.51764
2.58240E+06 3.52281
2.58300E+06 3.45483
2.58330E+06 3.42065
2.58368E+06 3.37755
2.58520E+06 3.20506
2.58810E+06 3.21395
2.59100E+06 3.22414
2.59380E+06 3.48283
2.59670E+06 3.79283
2.59960E+06 3.37472
2.60000E+06 3.35244
2.60250E+06 3.21275
2.60540E+06 3.48748
2.60830E+06 3.60821
2.61120E+06 3.70574
2.61410E+06 3.57167
2.61700E+06 3.07310
2.61990E+06 3.07753
2.62280E+06 3.51527
2.62570E+06 3.51810
2.62800E+06 3.65100
2.62843E+06 3.67565
2.62870E+06 3.69118
2.63160E+06 3.44828
2.63450E+06 3.51448
2.63750E+06 3.37833
2.64040E+06 3.65603
2.64340E+06 3.30939
2.64630E+06 3.38029
2.64930E+06 3.71285
2.65230E+06 3.59350
2.65520E+06 3.13820
2.65820E+06 3.16626
2.66120E+06 3.62412
2.66420E+06 3.46768
2.66720E+06 3.48073
2.67020E+06 3.29429
2.67320E+06 3.50675
2.67620E+06 3.27201
2.67920E+06 2.75727
2.68220E+06 2.89022
2.68520E+06 3.10648
2.68830E+06 3.21910
2.69130E+06 3.21605
2.69430E+06 3.48051
2.69740E+06 3.74133
2.70000E+06 3.39505
2.70040E+06 3.34175
2.70350E+06 3.20228
2.70650E+06 3.33419
2.70960E+06 3.22693
2.71270E+06 3.72176
2.71570E+06 3.38298
2.71880E+06 3.74521
2.72190E+06 3.18555
2.72500E+06 3.20988
2.72810E+06 3.50652
2.73120E+06 3.16505
2.73430E+06 3.45329
2.73740E+06 3.15372
2.74050E+06 3.39706
2.74370E+06 3.53042
2.74680E+06 2.95065
2.74990E+06 3.59489
2.75000E+06 3.59061
2.75310E+06 3.45644
2.75620E+06 3.32928
2.75880E+06 3.19799
2.75900E+06 3.18794
2.75923E+06 3.17622
2.75940E+06 3.16775
2.76250E+06 3.05999
2.76570E+06 3.61656
2.76880E+06 3.81440
2.77200E+06 3.73547
2.77520E+06 3.55115
2.77840E+06 3.52032
2.78160E+06 3.25259
2.78470E+06 3.37263
2.78790E+06 3.63380
2.79110E+06 3.66837
2.79440E+06 3.43208
2.79760E+06 3.52795
2.80000E+06 3.34135
2.80080E+06 3.27905
2.80400E+06 3.40352
2.80730E+06 3.15010
2.81050E+06 3.39358
2.81370E+06 3.47415
2.81700E+06 3.30053
2.82020E+06 3.16691
2.82350E+06 2.91188
2.82680E+06 3.34396
2.82780E+06 3.28795
2.82800E+06 3.27675
2.82829E+06 3.26018
2.83000E+06 3.16459
2.83330E+06 3.02322
2.83660E+06 3.04725
2.83990E+06 3.49699
2.84320E+06 3.32992
2.84650E+06 3.74326
2.84980E+06 3.12359
2.85310E+06 3.34843
2.85640E+06 3.46986
2.85970E+06 3.45790
2.86310E+06 3.50037
2.86640E+06 3.39520
2.86970E+06 3.55324
2.87300E+06 3.37957
2.87310E+06 3.37410
2.87356E+06 3.39406
2.87640E+06 3.52146
2.87980E+06 3.24236
2.88320E+06 3.15687
2.88650E+06 3.17015
2.88990E+06 3.18815
2.89330E+06 3.43315
2.89670E+06 3.10936
2.90000E+06 3.20014
2.90010E+06 3.20277
2.90350E+06 3.44221
2.90690E+06 3.38455
2.91030E+06 3.11530
2.91370E+06 3.36534
2.91710E+06 3.25228
2.92060E+06 3.08995
2.92400E+06 3.63389
2.92740E+06 3.21793
2.93090E+06 3.48241
2.93430E+06 3.25955
2.93780E+06 3.52343
2.94130E+06 3.27821
2.94470E+06 3.26755
2.94820E+06 3.33252
2.95170E+06 3.04260
2.95520E+06 3.46098
2.95870E+06 3.67335
2.96220E+06 3.30493
2.96570E+06 3.32801
2.96920E+06 3.46629
2.97270E+06 3.32796
2.97630E+06 3.37758
2.97980E+06 3.16955
2.98330E+06 3.29493
2.98690E+06 3.45994
2.99040E+06 3.00802
2.99400E+06 3.49203
2.99760E+06 3.44815
3.00000E+06 3.29142
3.00049E+06 3.25893
3.00110E+06 3.21912
3.00470E+06 3.44235
3.00830E+06 3.06028
3.01190E+06 3.44901
3.01550E+06 3.15764
3.01910E+06 3.56357
3.02270E+06 3.33040
3.02630E+06 3.21413
3.03000E+06 3.11344
3.03360E+06 3.69057
3.03720E+06 3.41530
3.04090E+06 3.53802
3.04450E+06 3.33005
3.04820E+06 3.47116
3.05180E+06 3.54059
3.05550E+06 3.57340
3.05920E+06 3.40981
3.06290E+06 3.67212
3.06660E+06 3.42973
3.07030E+06 3.59704
3.07400E+06 3.39626
3.07770E+06 3.63177
3.08140E+06 3.80218
3.08510E+06 3.56319
3.08880E+06 3.39800
3.09260E+06 3.36749
3.09630E+06 3.50071
3.10000E+06 3.08922
3.10010E+06 3.07812
3.10380E+06 3.52738
3.10760E+06 3.12804
3.11140E+06 3.14990
3.11520E+06 3.01596
3.11890E+06 3.59201
3.12270E+06 3.40927
3.12650E+06 3.36283
3.13030E+06 3.50189
3.13420E+06 3.33775
3.13800E+06 3.29771
3.14180E+06 3.53667
3.14560E+06 3.34533
3.14950E+06 3.51419
3.15330E+06 3.51825
3.15720E+06 3.95562
3.16100E+06 3.54708
3.16490E+06 3.58164
3.16880E+06 3.77920
3.17270E+06 3.95037
3.17660E+06 3.63203
3.18050E+06 3.69979
3.18440E+06 3.34896
3.18830E+06 3.49642
3.19220E+06 3.30719
3.19610E+06 3.68925
3.20000E+06 3.21611
3.20010E+06 3.20401
3.20400E+06 3.08886
3.20800E+06 3.50541
3.21190E+06 2.82506
3.21590E+06 3.36641
3.21980E+06 3.18316
3.22380E+06 3.32311
3.22780E+06 3.81596
3.23180E+06 3.64210
3.23580E+06 3.47305
3.23980E+06 3.64960
3.24380E+06 2.93495
3.24780E+06 3.63109
3.25000E+06 3.42781
3.25190E+06 3.25234
3.25590E+06 3.67190
3.26000E+06 3.12725
3.26400E+06 3.42530
3.26810E+06 3.54925
3.27210E+06 3.22551
3.27620E+06 3.55506
3.28030E+06 3.77421
3.28440E+06 3.88356
3.28850E+06 3.89101
3.29260E+06 3.26476
3.29670E+06 3.63131
3.30000E+06 3.62709
3.30080E+06 3.62613
3.30500E+06 3.88691
3.30910E+06 3.79605
3.31320E+06 3.51980
3.31740E+06 3.52677
3.32160E+06 3.43405
3.32570E+06 3.34599
3.32990E+06 3.72167
3.33410E+06 3.84235
3.33830E+06 3.71892
3.34250E+06 3.67920
3.34670E+06 3.52367
3.35090E+06 3.55195
3.35510E+06 3.56392
3.35940E+06 3.72273
3.36360E+06 3.56280
3.36790E+06 3.47641
3.37210E+06 3.22228
3.37640E+06 3.99559
3.38060E+06 3.52486
3.38490E+06 3.39067
3.38920E+06 3.65337
3.39350E+06 3.93198
3.39780E+06 2.69059
3.40000E+06 3.14295
3.40210E+06 3.57494
3.40650E+06 3.72281
3.41080E+06 3.42647
3.41510E+06 3.27804
3.41950E+06 3.97221
3.42380E+06 3.46448
3.42820E+06 3.46815
3.43260E+06 3.31311
3.43690E+06 3.74968
3.44130E+06 3.55245
3.44570E+06 3.66382
3.45010E+06 3.53328
3.45450E+06 3.55115
3.45900E+06 3.47872
3.46340E+06 3.47179
3.46780E+06 4.03175
3.47230E+06 3.61862
3.47670E+06 3.37919
3.48120E+06 3.50956
3.48570E+06 3.61322
3.49020E+06 3.27609
3.49470E+06 3.60846
3.49920E+06 3.47602
3.50000E+06 3.51112
3.50370E+06 3.67356
3.50820E+06 3.66127
3.51270E+06 3.21938
3.51720E+06 3.62609
3.52180E+06 3.26690
3.52630E+06 3.48711
3.53090E+06 3.82272
3.53550E+06 3.78853
3.54000E+06 3.62044
3.54460E+06 3.70075
3.54920E+06 3.74875
3.55380E+06 3.58796
3.55840E+06 3.36257
3.56310E+06 3.31917
3.56770E+06 3.42978
3.57230E+06 3.43238
3.57700E+06 3.50179
3.58170E+06 3.67769
3.58630E+06 3.44920
3.59100E+06 3.31600
3.59570E+06 3.75250
3.60000E+06 3.67032
3.60040E+06 3.66258
3.60510E+06 3.34289
3.60980E+06 3.65429
3.61450E+06 3.57040
3.61930E+06 3.53502
3.62400E+06 3.67642
3.62880E+06 3.52184
3.63350E+06 3.94445
3.63830E+06 3.71247
3.64310E+06 3.21019
3.64790E+06 3.58971
3.65270E+06 3.46573
3.65750E+06 3.56955
3.66230E+06 3.80517
3.66710E+06 3.30819
3.67200E+06 3.56692
3.67680E+06 3.92174
3.68170E+06 3.65368
3.68650E+06 3.69530
3.69140E+06 3.43643
3.69630E+06 3.31007
3.70000E+06 3.51452
3.70120E+06 3.58085
3.70610E+06 3.33186
3.71100E+06 3.59437
3.71590E+06 3.47338
3.72090E+06 3.47511
3.72580E+06 3.75422
3.73080E+06 3.52565
3.73570E+06 3.52297
3.74070E+06 3.20890
3.74570E+06 3.97543
3.75070E+06 3.61956
3.75570E+06 3.80199
3.76070E+06 3.43932
3.76570E+06 3.23685
3.77080E+06 3.75390
3.77580E+06 3.69863
3.78090E+06 3.22568
3.78590E+06 3.61021
3.79100E+06 3.74565
3.79610E+06 3.50160
3.80000E+06 3.53573
3.80120E+06 3.54616
3.80630E+06 3.86547
3.81140E+06 3.58227
3.81650E+06 3.52198
3.82170E+06 3.70430
3.82680E+06 3.51501
3.83200E+06 3.31023
3.83710E+06 3.35504
3.84230E+06 3.75366
3.84750E+06 3.70009
3.85270E+06 3.74511
3.85790E+06 3.62974
3.86310E+06 3.77786
3.86840E+06 4.04501
3.87360E+06 3.83743
3.87890E+06 3.51317
3.88410E+06 3.54230
3.88940E+06 3.59294
3.89470E+06 3.62139
3.90000E+06 3.45553
3.90530E+06 3.71398
3.91060E+06 3.68522
3.91590E+06 3.68887
3.92130E+06 3.22713
3.92660E+06 3.49527
3.93200E+06 3.55494
3.93740E+06 3.54750
3.94270E+06 4.02265
3.94810E+06 3.51251
3.95350E+06 3.56787
3.95900E+06 3.60896
3.96440E+06 4.09512
3.96980E+06 3.92859
3.97530E+06 3.57267
3.98070E+06 3.84503
3.98620E+06 3.68462
3.99170E+06 3.74820
3.99720E+06 3.65829
4.00000E+06 3.58394
4.00270E+06 3.51207
4.00820E+06 3.17544
4.01370E+06 3.87752
4.01930E+06 3.74109
4.02480E+06 3.49666
4.03040E+06 3.59194
4.03600E+06 3.62151
4.04160E+06 3.47138
4.04720E+06 3.29575
4.05280E+06 3.61863
4.05840E+06 3.67450
4.06400E+06 3.65337
4.06970E+06 3.77615
4.07530E+06 3.91662
4.08100E+06 3.60040
4.08670E+06 3.97397
4.09240E+06 3.79975
4.09810E+06 3.51502
4.10380E+06 3.48610
4.10950E+06 3.33597
4.11530E+06 3.54115
4.12100E+06 3.64842
4.12680E+06 3.43210
4.13260E+06 3.57357
4.13840E+06 3.69555
4.14420E+06 3.72902
4.15000E+06 3.99530
4.15580E+06 3.80718
4.16160E+06 4.00065
4.16750E+06 3.60323
4.17340E+06 3.76001
4.17920E+06 3.78788
4.18510E+06 3.71556
4.19100E+06 3.87844
4.19690E+06 3.79231
4.20000E+06 3.72495
4.20290E+06 3.66182
4.20880E+06 3.79514
4.21480E+06 3.74096
4.22070E+06 3.46868
4.22670E+06 3.73760
4.23270E+06 3.71341
4.23870E+06 3.79372
4.24470E+06 3.46654
4.25000E+06 3.74761
4.25070E+06 3.78475
4.25680E+06 3.38056
4.26280E+06 3.62408
4.26890E+06 3.78158
4.27500E+06 3.33699
4.28110E+06 3.57640
4.28720E+06 3.92040
4.29330E+06 4.09301
4.29940E+06 3.62122
4.30560E+06 3.22032
4.31170E+06 3.79242
4.31790E+06 3.93142
4.32410E+06 3.95492
4.33030E+06 3.98412
4.33650E+06 3.67962
4.34270E+06 3.91032
4.34890E+06 3.64942
4.35520E+06 3.82211
4.36150E+06 3.67770
4.36770E+06 3.57060
4.37400E+06 3.22859
4.38030E+06 3.56288
4.38670E+06 3.99206
4.39300E+06 3.85045
4.39930E+06 3.72604
4.40000E+06 3.70438
4.40570E+06 3.52796
4.41210E+06 3.25133
4.41850E+06 3.82961
4.42490E+06 3.49988
4.43130E+06 3.71945
4.43770E+06 3.56032
4.44420E+06 3.38250
4.45060E+06 3.46637
4.45710E+06 3.72904
4.46360E+06 3.41811
4.47010E+06 3.94759
4.47660E+06 3.97406
4.48310E+06 4.19003
4.48970E+06 3.66320
4.49620E+06 3.67888
4.50000E+06 3.67006
4.50280E+06 3.66356
4.50940E+06 3.53288
4.51600E+06 4.09649
4.52260E+06 3.78220
4.52920E+06 3.50701
4.53590E+06 3.83082
4.54250E+06 3.70193
4.54920E+06 3.40695
4.55590E+06 3.42506
4.56260E+06 3.84617
4.56930E+06 3.89018
4.57610E+06 4.07659
4.58280E+06 3.88050
4.58960E+06 4.03812
4.59630E+06 3.46053
4.60000E+06 3.63464
4.60310E+06 3.78049
4.60990E+06 3.92663
4.61680E+06 3.80457
4.62360E+06 3.76951
4.63050E+06 3.63905
4.63730E+06 3.73889
4.64420E+06 3.48753
4.65110E+06 4.06158
4.65800E+06 3.70402
4.66500E+06 3.55057
4.67190E+06 3.80451
4.67890E+06 3.91116
4.68590E+06 3.43661
4.69290E+06 3.55496
4.69990E+06 3.93761
4.70690E+06 3.43225
4.71390E+06 3.51630
4.72100E+06 4.09556
4.72810E+06 3.36331
4.73520E+06 3.65326
4.74230E+06 3.83242
4.74940E+06 3.76247
4.75000E+06 3.74990
4.75650E+06 3.61282
4.76370E+06 3.68628
4.77080E+06 4.19124
4.77800E+06 3.80230
4.78520E+06 3.86296
4.79240E+06 3.73382
4.79970E+06 3.94258
4.80000E+06 3.94520
4.80690E+06 4.00396
4.81420E+06 3.78423
4.82150E+06 3.93900
4.82880E+06 3.77337
4.83610E+06 3.72954
4.84340E+06 3.78131
4.85080E+06 3.66738
4.85820E+06 3.44965
4.86550E+06 3.78752
4.87290E+06 3.62639
4.88040E+06 3.86106
4.88780E+06 3.50273
4.89520E+06 3.59970
4.90270E+06 3.83947
4.91020E+06 3.84274
4.91770E+06 3.62701
4.92520E+06 3.88038
4.93280E+06 3.46416
4.94030E+06 4.18473
4.94790E+06 3.76410
4.95550E+06 4.23777
4.96310E+06 3.81444
4.97070E+06 4.01182
4.97840E+06 3.55109
4.98600E+06 3.64806
4.99370E+06 3.57273
5.00000E+06 3.75899
5.20000E+06 3.76221
5.22600E+06 3.76247
5.22610E+06 3.76257
5.22696E+06 3.76257
5.25000E+06 3.76271
5.40000E+06 3.76437
5.50000E+06 3.76602
5.60000E+06 3.76269
5.62500E+06 3.76179
5.75000E+06 3.75710
5.80000E+06 3.75520
5.90000E+06 3.75200
6.00000E+06 3.74828
6.25000E+06 3.72980
6.50000E+06 3.71131
6.75000E+06 3.68530
7.00000E+06 3.65932
7.05970E+06 3.65139
7.06000E+06 3.65128
7.10000E+06 3.64609
7.25000E+06 3.62728
7.48890E+06 3.59742
7.48900E+06 3.59742
7.49000E+06 3.59727
7.50000E+06 3.59601
7.69400E+06 3.56857
7.75000E+06 3.56052
8.00000E+06 3.52505
8.25000E+06 3.48699
8.40000E+06 3.46412
8.50000E+06 3.44884
8.75000E+06 3.40979
8.91250E+06 3.38432
8.91300E+06 3.38430
9.00000E+06 3.37060
9.07870E+06 3.35818
9.07900E+06 3.35817
9.07979E+06 3.35805
9.25000E+06 3.33122
9.50000E+06 3.29170
9.75000E+06 3.25218
1.00000E+07 3.21276
1.02500E+07 3.17473
1.05000E+07 3.13677
1.06000E+07 3.12157
1.06300E+07 3.11704
1.06310E+07 3.11682
1.06329E+07 3.11642
1.07500E+07 3.09881
1.10000E+07 3.06085
1.12500E+07 3.02662
1.15000E+07 2.99251
1.17500E+07 2.95823
1.17970E+07 2.95186
1.17986E+07 2.95164
1.18000E+07 2.95142
1.20000E+07 2.92397
1.22500E+07 2.89450
1.25000E+07 2.86501
1.27500E+07 2.83553
1.30000E+07 2.80602
1.31200E+07 2.79418
1.31230E+07 2.79397
1.32500E+07 2.78150
1.35000E+07 2.75701
1.37500E+07 2.73249
1.40000E+07 2.70799
1.42500E+07 2.68502
1.45000E+07 2.66000
1.47500E+07 2.64005
1.50000E+07 2.61899
1.52500E+07 2.59498
1.54400E+07 2.58054
1.55000E+07 2.57599
1.57500E+07 2.55698
1.60000E+07 2.53702
1.62500E+07 2.51699
1.65000E+07 2.50004
1.67500E+07 2.48503
1.68540E+07 2.47789
1.70000E+07 2.46797
1.71250E+07 2.46154
1.72500E+07 2.45502
1.73750E+07 2.44796
1.75000E+07 2.44100
1.76250E+07 2.43646
1.77500E+07 2.43202
1.78750E+07 2.42604
1.80000E+07 2.41997
1.81250E+07 2.41498
1.82500E+07 2.41001
1.85000E+07 2.40002
1.87500E+07 2.39006
1.90000E+07 2.38105
1.92500E+07 2.37805
1.93750E+07 2.37498
1.95000E+07 2.37202
1.96250E+07 2.37047
1.97500E+07 2.36902
1.98750E+07 2.36753
2.00000E+07 2.36606