Ni-62(n,tot) ENDF/B-VII.1
Energy(eV) XS(b)
1.00000E-05 759.068
1.25000E-05 679.949
1.50000E-05 621.546
2.00000E-05 539.567
2.75000E-05 461.564
3.50000E-05 410.228
4.25000E-05 373.168
5.00000E-05 344.797
6.25000E-05 309.414
7.50000E-05 283.295
0.000100000 246.633
0.000125000 221.613
0.000150000 203.145
0.000200000 177.221
0.000275000 152.554
0.000350000 136.320
0.000425000 124.601
0.000500000 115.629
0.000625000 104.440
0.000750000 96.1803
0.00100000 84.5867
0.00125000 76.6748
0.00150000 70.8345
0.00200000 62.6366
0.00275000 54.8363
0.00350000 49.7028
0.00425000 45.9968
0.00500000 43.1596
0.00625000 39.6214
0.00750000 37.0095
0.0100000 33.3433
0.0125000 30.8414
0.0150000 28.9946
0.0200000 26.4022
0.0253000 24.5440
0.0314750 23.0028
0.0376500 21.8584
0.0500000 20.2433
0.0625000 19.1245
0.0750000 18.2987
0.100000 17.1395
0.125000 16.3486
0.150000 15.7647
0.200000 14.9453
0.275000 14.1659
0.350000 13.6531
0.500000 12.9999
0.750000 12.3868
1.00000 12.0220
1.50000 11.5907
2.00000 11.3351
2.75000 11.0937
3.50000 10.9367
5.00000 10.7404
7.50000 10.5634
10.0000 10.4650
15.0000 10.3625
20.0000 10.3155
27.5000 10.2901
35.0000 10.2916
50.0000 10.3325
75.0000 10.4507
100.000 10.5971
150.000 10.9302
200.000 11.2957
275.000 11.8878
350.000 12.5264
500.000 13.9419
750.000 16.7570
999.999 20.2717
1000.00 20.2717
1000.01 20.2718
1000.02 20.2719
1000.03 20.2722
1000.06 20.2727
1000.12 20.2736
1000.25 20.2755
1000.49 20.2794
1000.98 20.2871
1001.96 20.3024
1003.91 20.3332
1007.81 20.3949
1015.63 20.5190
1031.25 20.7699
1062.50 21.2827
1125.00 22.3543
1250.00 24.6971
1500.00 30.3309
2000.00 47.0974
2399.68 69.3051
2799.35 105.915
3199.03 168.711
3598.70 276.854
4000.00 440.221
4000.00 440.222
4000.01 440.224
4000.01 440.226
4000.02 440.229
4000.03 440.236
4000.07 440.251
4000.13 440.280
4000.27 440.338
4000.53 440.454
4001.06 440.686
4002.11 441.149
4004.22 442.076
4008.44 443.928
4016.88 447.625
4033.75 454.990
4067.50 469.548
4135.00 497.558
4270.00 545.527
4540.00 583.770
5000.00 469.352
5481.30 307.146
5909.85 211.436
6338.41 152.471
6766.96 115.295
7195.51 90.7692
7624.06 73.8427
8052.62 61.6871
8481.17 52.6573
8695.44 48.9861
8802.58 47.3204
8856.15 46.5266
8882.94 46.1423
8896.33 45.9663
8899.68 45.9350
8903.02 45.9332
8904.70 45.9715
8906.37 46.1148
8907.21 46.3188
8907.63 46.5150
8908.05 46.8507
8908.47 47.4926
8908.67 48.0524
8908.88 48.9322
8909.09 50.4281
8909.30 53.2007
8909.41 55.5504
8909.51 59.0270
8909.62 64.4226
8909.72 72.6587
8909.86 88.8357
8910.00 99.6496
8910.14 88.9025
8910.28 72.7395
8910.41 63.2166
8910.53 57.5751
8910.65 54.1226
8910.78 51.9487
8911.03 49.4881
8911.28 48.2313
8911.52 47.5052
8911.77 47.0512
8912.27 46.5375
8913.27 46.1060
8914.26 45.9287
8916.25 45.7748
8918.24 45.7000
8922.22 45.6090
8926.20 45.5405
8942.11 45.3054
8973.94 44.8632
9037.60 44.0079
9164.92 42.3864
9292.24 40.8742
9324.08 40.5132
9355.91 40.1622
9371.82 39.9944
9387.74 39.8445
9395.69 39.7927
9399.67 39.7847
9403.65 39.8061
9407.63 39.9007
9409.62 40.0152
9411.61 40.2382
9412.60 40.4303
9413.60 40.7243
9414.59 41.2011
9415.59 42.0404
9416.58 43.7150
9417.08 45.2484
9417.58 47.7855
9418.07 52.4234
9418.32 56.3093
9418.57 62.1438
9418.82 71.4892
9419.07 87.3940
9419.32 116.871
9419.57 173.733
9419.78 254.713
9420.00 308.535
9420.22 254.694
9420.44 174.206
9420.58 137.170
9420.72 111.890
9421.00 82.3504
9421.28 67.2823
9421.57 58.8075
9421.85 53.6344
9422.13 50.2660
9422.70 46.3106
9423.27 44.1728
9423.83 42.8900
9424.96 41.4923
9426.10 40.7848
9427.23 40.3751
9428.36 40.1145
9429.49 39.9368
9431.76 39.7122
9434.02 39.5760
9438.55 39.4131
9443.08 39.3104
9447.60 39.2320
9456.66 39.1054
9474.77 38.8923
9492.88 38.6953
9565.33 37.9494
9710.22 36.5495
10000.0 34.0294
10961.2 27.6542
11922.3 23.2882
13844.7 17.7786
15767.0 14.4931
16728.2 13.3098
17208.7 12.7976
17449.0 12.5584
17569.2 12.4438
17629.3 12.3937
17644.3 12.3875
17659.3 12.3970
17666.8 12.4237
17674.3 12.5123
17678.1 12.6396
17680.0 12.7655
17681.8 12.9885
17683.7 13.4434
17684.6 13.8689
17685.6 14.5783
17686.5 15.9231
17687.0 17.0847
17687.5 18.8922
17687.9 21.9044
17688.4 27.3888
17688.6 32.0254
17688.9 38.5202
17689.1 48.1467
17689.3 62.3913
17689.7 92.6223
17690.0 112.933
17690.3 92.9926
17690.7 62.8559
17691.0 45.6911
17691.3 35.4928
17691.5 29.0920
17691.8 24.9220
17692.4 20.0417
17692.9 17.5369
17693.5 16.0520
17694.1 15.1332
17695.2 14.0759
17696.3 13.5208
17697.5 13.1937
17699.7 12.8440
17702.0 12.6684
17704.2 12.5681
17708.7 12.4614
17717.8 12.3755
17726.8 12.3384
17744.8 12.2999
17762.9 12.2751
17798.9 12.2358
17835.0 12.2005
17907.2 12.1334
17979.4 12.0683
18268.0 11.8181
18845.3 11.3541
20000.0 10.5455
22229.8 9.31663
23344.7 8.82069
23902.2 8.59518
24180.9 8.48726
24320.2 8.43432
24389.9 8.40839
24424.8 8.39803
24442.2 8.40571
24450.9 8.46361
24453.1 8.52550
24455.2 8.69531
24456.3 8.91609
24457.4 9.47049
24458.0 10.1322
24458.5 11.5595
24458.8 12.9899
24459.1 15.5578
24459.3 20.6619
24459.5 25.3103
24459.6 31.9539
24459.8 46.4312
24460.0 55.8898
24460.2 46.7194
24460.4 32.3170
24460.6 22.4392
24460.9 17.1456
24461.1 14.2639
24461.3 12.5715
24461.8 10.7991
24462.2 9.94948
24463.2 9.19527
24464.1 8.88064
24465.9 8.62675
24467.8 8.52834
24475.1 8.42124
24489.8 8.38561
24519.1 8.36576
24577.9 8.34130
24695.4 8.29753
24930.3 8.21314
25400.2 8.05061
26340.0 7.74602
27279.9 7.46463
27749.8 7.33126
27984.7 7.26603
28102.2 7.23360
28160.9 7.21772
28190.3 7.21292
28205.0 7.22679
28212.3 7.30293
28214.2 7.38311
28216.0 7.60119
28216.9 7.88601
28217.8 8.60321
28218.3 9.45117
28218.8 11.3223
28219.0 13.2170
28219.2 16.6552
28219.4 23.5856
28219.6 29.3670
28219.7 37.7798
28219.8 56.3289
28220.0 68.8635
28220.2 56.7332
28220.3 38.2853
28220.5 28.0417
28220.6 22.0327
28220.9 15.5433
28221.1 12.4606
28221.4 10.7999
28221.9 9.18321
28222.4 8.45531
28223.5 7.83364
28224.5 7.58615
28226.6 7.38949
28228.7 7.31403
28237.1 7.23260
28253.8 7.20485
28287.2 7.18865
28354.0 7.16825
28487.6 7.13167
28754.9 7.06074
29022.1 6.99077
29155.8 6.95590
29222.6 6.94092
29256.0 6.94972
29264.3 6.96856
29272.7 7.02974
29276.9 7.11892
29281.0 7.37019
29283.1 7.70703
29284.2 8.03081
29285.2 8.58469
29286.3 9.67096
29286.8 10.6315
29287.3 12.1720
29287.8 14.8521
29288.4 20.0611
29288.6 24.6535
29288.9 31.8279
29289.1 43.5126
29289.4 63.2877
29289.7 97.8457
29290.0 120.742
29290.3 98.7077
29290.6 64.3716
29291.0 39.7650
29291.3 27.0922
29291.7 20.3348
29292.0 16.5049
29292.4 14.0355
29292.7 12.4429
29293.5 10.5037
29294.2 9.43526
29294.9 8.78575
29296.3 8.06957
29299.1 7.49134
29302.0 7.26616
29307.7 7.09073
29313.3 7.02318
29324.7 6.96920
29336.1 6.94671
29358.8 6.92545
29381.5 6.91353
29472.4 6.88344
29654.2 6.83545
30017.9 6.74505
30745.1 6.57039
31472.4 6.40065
31836.0 6.31690
32017.8 6.27490
32108.7 6.25357
32154.2 6.24364
32176.9 6.24587
32188.3 6.28293
32193.9 6.44900
32195.4 6.61600
32196.8 7.05659
32197.5 7.60517
32198.2 8.90147
32198.6 10.3483
32198.9 13.1541
32199.1 15.7664
32199.3 19.9940
32199.5 27.1987
32199.6 38.8375
32199.8 58.6899
32200.0 72.1666
32200.2 59.2697
32200.4 39.5625
32200.5 30.1181
32200.6 23.7376
32200.9 16.6623
32201.2 12.9406
32201.4 10.9418
32201.9 8.88340
32202.4 7.93184
32203.4 7.10793
32204.5 6.77250
32206.5 6.50160
32208.5 6.39632
32216.6 6.28192
32232.9 6.24446
32265.4 6.22634
32330.3 6.20785
32460.3 6.17695
32720.2 6.11759
33240.0 5.99996
33759.8 5.88199
34019.7 5.82232
34149.7 5.79188
34214.7 5.77635
34247.1 5.77075
34263.4 5.78262
34271.5 5.85557
34273.5 5.93401
34275.6 6.15113
34276.6 6.43717
34277.6 7.15090
34278.1 8.00146
34278.6 9.87939
34278.9 11.8287
34279.1 15.2233
34279.4 21.9521
34279.5 28.0759
34279.6 36.3530
34279.8 55.0075
34280.0 67.6941
34280.2 55.6078
34280.4 37.1035
34280.6 23.4141
34280.8 16.5660
34281.1 12.9361
34281.3 10.8404
34281.8 8.67644
34282.2 7.65081
34283.1 6.74634
34284.1 6.37014
34285.9 6.06624
34287.7 5.94795
34295.1 5.81840
34309.8 5.77644
34339.1 5.75736
34397.8 5.73948
34515.3 5.71058
34750.2 5.65504
35219.9 5.54311
36159.5 5.30824
37099.1 5.04843
37568.8 4.90355
37803.7 4.82573
37921.2 4.78676
37979.9 4.77837
37994.6 4.78826
38009.3 4.82886
38016.6 4.89126
38023.9 5.06891
38027.6 5.30381
38029.4 5.52534
38031.3 5.89834
38033.1 6.60329
38034.0 7.21134
38034.9 8.14160
38035.9 9.69481
38036.8 12.4901
38037.7 18.0524
38038.2 22.8922
38038.6 29.8107
38039.3 45.1713
38040.0 55.4202
38040.7 45.5149
38041.4 30.3513
38042.0 22.1240
38042.5 17.0100
38043.1 13.7369
38043.6 11.5716
38044.7 9.01205
38045.8 7.66156
38046.9 6.85753
38048.0 6.35038
38050.2 5.76508
38052.4 5.45182
38054.6 5.26590
38059.1 5.06304
38067.9 4.89968
38076.7 4.83438
38094.3 4.77937
38112.0 4.75413
38147.3 4.72629
38182.6 4.70736
38323.7 4.64753
38606.0 4.53331
39170.5 4.27805
39735.1 3.96458
40017.4 3.77580
40158.5 3.67062
40229.1 3.61466
40264.4 3.58590
40282.0 3.57390
40290.8 3.58229
40295.3 3.64713
40297.5 3.89435
40298.6 4.62142
40299.1 6.19225
40299.4 8.52777
40299.7 14.1784
40299.8 20.6891
40300.0 25.1450
40300.2 20.9658
40300.3 14.5242
40300.5 10.1809
40300.7 7.91195
40301.0 5.78111
40301.7 4.44357
40303.1 3.85289
40305.8 3.64682
40311.3 3.57843
40322.2 3.54953
40344.0 3.52452
40387.7 3.48430
40475.1 3.40447
40649.9 3.23256
40824.7 3.03939
40912.1 2.93300
40955.8 2.87734
40977.7 2.85357
40988.6 2.86762
40994.1 2.98290
40996.8 3.41433
40998.2 4.65920
40998.9 7.21909
40999.2 10.7270
40999.5 18.9363
40999.8 28.8302
41000.0 35.6139
41000.2 29.2804
41000.5 19.4987
41000.7 13.5890
41000.9 10.0892
41001.3 6.69760
41002.1 4.41019
41003.8 3.36287
41007.1 2.98574
41013.7 2.85894
41027.0 2.80449
41053.6 2.75613
41106.7 2.67656
41212.9 2.51414
41425.4 2.14542
41637.8 1.70160
41850.2 1.16799
42062.7 0.557992
42168.9 0.263329
42222.0 0.140850
42248.6 0.0918766
42275.1 0.0547273
42301.7 0.0330397
42328.2 0.0315245
42354.8 0.0562236
42381.3 0.114927
42407.9 0.217829
42434.5 0.378107
42461.0 0.613296
42487.6 0.946202
42514.1 1.40759
42540.7 2.03773
42567.2 2.89133
42593.8 4.04004
42646.9 7.63690
42700.0 13.9646
42742.5 22.0088
42785.0 33.2005
42870.0 57.6772
42912.5 62.8574
42955.0 61.2853
43040.0 49.1763
43095.0 41.3836
43150.0 35.1533
43260.0 26.6845
43369.9 21.5670
43479.9 18.2717
43589.9 16.0146
43699.9 14.3884
43919.8 12.2215
44139.7 10.8534
44359.7 9.91427
44579.6 9.22946
44689.6 8.95130
44744.6 8.82439
44772.1 8.76656
44785.8 8.75841
44792.7 8.84632
44796.2 9.23639
44797.0 9.60490
44797.9 10.5028
44798.3 11.5163
44798.7 13.6105
44799.2 18.8546
44799.4 24.4931
44799.6 35.0187
44799.8 50.9519
44800.0 62.2197
44800.2 51.6696
44800.4 35.9090
44800.6 27.6702
44800.7 22.1602
44801.1 16.2412
44801.7 11.9905
44802.3 10.5178
44803.0 9.86418
44805.5 9.06848
44810.6 8.80421
44820.7 8.70530
44841.0 8.63945
44881.7 8.55134
44962.9 8.39850
45125.4 8.13099
45450.4 7.69947
46100.3 7.09366
46750.3 6.68115
47400.2 6.37592
48700.1 5.94022
50000.0 5.62957
51549.8 5.34368
52324.7 5.22176
52712.2 5.16440
52905.9 5.13618
53002.7 5.12171
53051.2 5.11390
53075.4 5.11072
53087.5 5.11782
53093.5 5.16418
53096.6 5.35106
53098.1 5.93787
53098.8 7.32648
53099.2 9.54465
53099.6 15.7908
53100.0 26.9878
53100.4 16.3066
53100.6 11.5987
53100.9 9.20374
53101.3 7.10995
53102.3 5.87984
53104.1 5.37003
53107.8 5.19394
53115.2 5.13690
53130.1 5.11659
53159.7 5.10606
53219.0 5.09535
53337.6 5.07800
53574.8 5.04541
54049.2 4.98268
54523.6 4.92207
54998.0 4.86314
55472.4 4.80574
55709.6 4.77789
55946.8 4.75138
56184.0 4.72892
56302.6 4.72209
56421.2 4.72347
56480.5 4.73083
56539.8 4.74730
56599.1 4.78120
56658.4 4.85238
56688.0 4.91639
56717.7 5.01704
56747.3 5.18440
56777.0 5.48585
56806.6 6.09762
56821.4 6.66335
56836.3 7.60095
56851.1 9.30566
56858.5 10.7203
56865.9 12.8297
56873.3 16.1365
56880.7 21.6358
56888.1 31.3700
56895.5 49.1869
56902.8 76.8829
56910.0 96.1327
56917.2 78.7479
56924.5 51.5352
56930.5 36.1298
56936.5 26.5779
56942.6 20.5864
56948.6 16.6835
56960.7 12.1666
56972.7 9.78627
56984.8 8.38949
56996.8 7.50206
57021.0 6.47976
57045.1 5.93342
57069.2 5.60597
57093.3 5.39299
57117.4 5.24587
57165.7 5.05935
57213.9 4.94816
57262.2 4.87510
57310.4 4.82354
57406.9 4.75510
57503.4 4.71070
57599.9 4.67846
57696.4 4.65311
57889.3 4.61362
58082.3 4.58207
58468.3 4.52964
58854.2 4.48380
59240.2 4.44113
60012.1 4.36064
61555.8 4.20871
62327.7 4.13488
62713.7 4.09792
62906.7 4.07881
63003.2 4.06801
63051.4 4.06071
63075.5 4.05556
63087.6 4.05873
63093.6 4.10300
63096.6 4.30906
63098.1 5.01299
63098.9 6.76498
63099.3 9.79382
63099.5 13.1923
63099.6 19.2704
63099.8 28.9755
63100.0 35.5753
63100.2 29.8457
63100.4 20.3673
63100.7 11.2486
63101.0 7.92364
63101.7 5.67628
63103.0 4.64333
63105.7 4.26130
63111.0 4.13250
63121.7 4.08802
63142.9 4.07018
63185.5 4.05984
63270.7 4.04909
63441.0 4.03186
63781.6 3.99939
64462.8 3.93549
65825.1 3.80803
68549.9 3.54826
71274.7 3.27171
72637.1 3.12094
73318.2 3.03977
73658.8 2.99630
73829.1 2.97215
73914.3 2.95693
73956.9 2.94585
73978.2 2.94305
73988.8 2.98192
73994.1 3.19451
73996.8 3.97235
73998.1 6.06351
73998.8 9.96419
73999.1 14.5876
73999.4 23.7648
73999.7 37.1824
74000.0 46.2786
74000.3 38.0585
74000.6 25.4683
74001.0 14.8191
74001.4 10.0354
74002.1 6.24854
74003.7 4.20944
74006.9 3.39296
74013.1 3.10874
74025.7 3.01090
74050.8 2.97302
74101.0 2.95277
74201.5 2.93344
74402.3 2.90313
74804.1 2.84329
75607.6 2.70289
76009.3 2.60826
76210.2 2.54691
76411.1 2.46748
76611.9 2.35329
76712.4 2.27125
76812.8 2.15773
76863.0 2.08173
76913.3 1.98559
76963.5 1.85932
77013.7 1.68532
77038.8 1.57093
77063.9 1.42998
77089.0 1.25284
77114.1 1.02646
77139.2 0.738060
77164.3 0.412698
77176.9 0.312624
77183.2 0.334024
77189.5 0.466484
77195.7 0.817642
77198.9 1.13671
77202.0 1.60555
77205.1 2.29296
77208.3 3.29275
77211.4 4.73831
77214.6 6.79718
77218.4 10.4834
77222.3 15.5842
77230.0 26.6738
77233.9 28.9657
77237.7 28.1652
77245.5 22.5310
77254.6 16.5216
77263.8 12.7565
77273.0 10.4124
77282.2 8.87701
77291.3 7.81264
77300.5 7.04147
77318.9 6.00889
77337.2 5.35564
77355.5 4.90849
77392.2 4.33835
77428.9 3.99121
77465.6 3.75778
77502.3 3.58976
77539.0 3.46271
77612.4 3.28240
77685.8 3.15941
77759.2 3.06907
77832.5 2.99907
77979.3 2.89548
78126.1 2.82000
78272.9 2.76011
78346.2 2.73331
78382.9 2.71952
78401.3 2.71230
78410.5 2.71457
78415.0 2.75072
78417.3 2.90490
78418.5 3.37914
78419.1 4.38889
78419.6 9.20073
78420.0 16.2371
78420.4 9.74830
78420.8 5.21510
78421.3 3.92376
78422.2 3.19117
78424.0 2.88041
78427.7 2.76942
78435.0 2.72987
78449.6 2.71213
78478.9 2.69826
78537.4 2.67926
78654.4 2.64682
78888.5 2.58994
79356.6 2.49222
80292.8 2.32232
82165.2 1.99856
84037.6 1.65141
85910.0 1.26145
87782.5 0.825266
89654.9 0.397470
90123.0 0.320698
90591.1 0.279248
91059.2 0.300292
91293.2 0.348124
91527.3 0.432265
91761.4 0.565249
91995.4 0.764300
92229.5 1.05328
92463.5 1.46536
92697.6 2.04655
92931.6 2.86006
93165.7 3.99016
93282.7 4.70596
93341.2 5.10701
93370.5 5.31788
93385.1 5.42483
93392.4 5.48172
93396.1 5.53550
93397.9 5.67014
93398.8 6.05904
93399.3 6.91993
93399.7 11.2950
93400.0 17.6786
93400.3 11.9301
93400.7 7.66339
93401.1 6.55283
93401.9 5.95159
93403.4 5.71490
93406.5 5.64929
93412.7 5.66611
93425.2 5.75239
93450.0 5.94846
93528.1 6.61953
93606.3 7.35892
93762.5 9.04756
94075.0 13.2241
94700.0 21.5885
95012.5 22.7723
95325.0 21.4671
95950.0 16.0357
96456.2 12.1215
96962.5 9.24663
97468.7 7.16201
97975.0 5.60568
98987.4 3.42859
99999.9 1.96034
100000 1.96010
100001 1.95950
100001 1.95901
100002 1.95805
100003 1.95613
100007 1.95229
100013 1.94462
100026 1.92923
100052 1.89866
100103 1.83853
100206 1.72185
100412 1.50278
100825 1.12504
101237 0.839379
101649 0.671290
102061 0.663733
102473 0.884094
102885 1.43128
103092 1.86521
103195 2.12676
103246 2.28687
103259 2.35428
103272 2.49579
103278 2.67061
103285 3.10943
103288 3.63786
103291 4.82029
103293 6.02436
103294 8.20681
103296 12.5726
103297 16.3855
103298 22.2682
103299 35.5436
103300 44.5618
103301 37.5075
103302 24.7731
103304 15.6653
103305 10.7209
103307 8.07316
103308 6.53106
103311 4.92038
103314 4.16450
103320 3.46007
103326 3.17060
103338 2.94403
103350 2.87281
103368 2.85578
103386 2.87982
103422 2.97243
103494 3.22244
103638 3.83310
103925 5.39579
104500 9.97852
105650 22.9783
106225 27.5904
106800 29.0962
107950 26.3234
108962 22.5286
109974 19.3696
110986 16.9677
111492 15.9948
111619 15.7700
111745 15.5503
111872 15.3305
111935 15.2171
111967 15.1872
111974 15.2169
111982 15.3454
111986 15.5447
111990 16.0624
111992 16.6936
111994 18.0614
111995 19.3932
111996 21.6786
111997 25.8743
111998 33.0143
111999 45.2766
112000 53.3810
112001 47.2306
112002 35.5209
112003 29.4680
112003 25.1644
112004 22.4661
112005 20.7099
112007 18.6758
112008 17.5987
112011 16.5530
112015 16.0851
112021 15.6538
112027 15.4676
112040 15.2961
112053 15.2122
112078 15.1175
112103 15.0545
112154 14.9558
112205 14.8701
112306 14.7123
112408 14.5632
112814 14.0133
113626 13.0690
115249 11.6196
116873 10.5601
117279 10.3375
117685 10.1276
118091 9.92515
118294 9.81913
118396 9.75951
118446 9.75278
118459 9.78644
118472 9.91667
118478 10.1134
118484 10.6291
118488 11.2535
118491 12.5414
118492 13.8123
118494 15.9762
118495 19.9080
118497 26.8784
118499 38.4811
118500 46.6183
118502 40.5473
118503 29.4970
118504 23.8409
118505 19.8857
118507 17.3146
118508 15.7126
118510 13.6645
118512 12.5309
118517 11.3739
118522 10.8444
118531 10.3635
118540 10.1556
118559 9.97115
118577 9.88786
118614 9.80636
118651 9.76187
118725 9.70456
118799 9.66161
118948 9.58927
119096 9.52406
119392 9.40261
119688 9.28841
120874 8.87860
123245 8.21824
127986 7.28742
130357 6.93982
132728 6.63975
133913 6.50144
135099 6.36602
135691 6.29683
136284 6.22385
136580 6.18586
136877 6.15381
137025 6.15437
137099 6.17102
137173 6.21734
137247 6.34042
137284 6.47198
137321 6.71055
137358 7.18706
137377 7.60991
137395 8.27580
137414 9.38821
137432 11.3894
137451 15.3145
137460 18.6863
137469 23.5099
137485 35.3273
137500 44.2656
137515 37.9404
137531 26.8778
137545 19.7028
137560 15.4444
137575 12.8708
137589 11.2356
137618 9.37811
137647 8.41036
137677 7.83801
137706 7.47170
137764 7.03964
137822 6.79983
137881 6.65032
137939 6.54877
137997 6.47539
138114 6.37587
138231 6.31061
138347 6.26336
138464 6.22666
138697 6.17102
138930 6.12838
139397 6.06112
139863 6.00513
140330 5.95439
141263 5.85991
142196 5.76825
143129 5.67423
143595 5.62430
144062 5.57000
144295 5.53957
144528 5.50419
144645 5.48248
144762 5.45481
144878 5.41713
144937 5.43267
144951 5.48868
144966 5.67978
144973 5.94535
144980 6.59754
144984 7.32047
144988 8.66837
144989 9.81457
144991 11.5293
144993 14.1572
144995 18.1945
144997 27.0102
145000 33.8744
145003 29.3785
145005 21.1550
145007 16.4337
145009 13.3836
145012 11.4074
145014 10.1371
145018 8.53158
145022 7.67107
145030 6.79263
145038 6.38062
145055 6.00163
145071 5.83268
145104 5.68103
145137 5.61173
145203 5.54468
145269 5.50939
145401 5.46682
145533 5.43666
146061 5.33795
146326 5.28731
146590 5.23184
147118 5.09606
147646 4.89820
147910 4.75382
148174 4.55177
148438 4.24185
148570 4.01285
148702 3.69549
148834 3.22592
148900 2.89707
148966 2.47004
149032 1.90306
149098 1.15337
149131 0.722146
149164 0.327370
149181 0.204194
149197 0.204636
149214 0.437917
149222 0.697265
149230 1.08668
149239 1.69438
149248 2.53732
149265 5.14368
149300 13.3838
149318 16.8472
149335 18.5018
149370 17.8475
149414 15.2017
149457 13.0787
149501 11.6030
149544 10.5676
149587 9.81206
149631 9.24258
149718 8.44813
149805 7.92227
149892 7.55030
150066 7.05868
150239 6.74758
150413 6.53224
150761 6.25070
151109 6.07182
151456 5.94561
152152 5.77380
152847 5.65676
153543 5.56768
154933 5.43256
156324 5.32716
157715 5.23728
158410 5.19588
159106 5.15578
159801 5.11482
160149 5.08978
160323 5.06908
160410 5.04931
160453 5.04527
160475 5.12880
160486 5.49938
160491 6.41918
160494 7.83804
160497 11.6806
160498 16.2468
160500 19.9527
160502 17.5986
160503 13.3584
160505 10.4879
160507 8.74606
160510 7.06999
160517 5.97194
160530 5.44767
160557 5.23231
160611 5.14500
160719 5.10467
160935 5.07854
161368 5.05017
162232 5.00534
163096 4.96408
163960 4.92446
167416 4.77567
174329 4.50233
181242 4.23704
182970 4.16828
184698 4.09583
185563 4.05661
186427 4.01288
186859 3.98795
187291 3.96084
187507 3.94942
187723 3.95406
187831 3.98412
187885 4.02178
187939 4.09557
187993 4.25097
188020 4.39361
188047 4.62265
188074 5.01189
188101 5.72279
188128 7.13543
188155 10.1204
188177 14.5245
188200 18.0596
188223 15.9652
188245 11.9228
188271 8.85826
188297 7.19572
188323 6.25065
188348 5.67780
188374 5.30387
188400 5.04811
188451 4.72711
188503 4.53941
188554 4.41870
188657 4.27520
188760 4.19366
188863 4.14118
189069 4.07679
189275 4.03736
189481 4.00947
189893 3.96966
190305 3.93973
190717 3.91436
191540 3.86990
193188 3.78972
194835 3.71189
201425 3.37533
204720 3.17567
208015 2.93981
209663 2.80179
211310 2.64360
212134 2.55373
212958 2.45437
213370 2.40271
213575 2.37912
213781 2.36214
213987 2.36596
214090 2.38864
214193 2.44488
214296 2.57716
214348 2.70333
214399 2.90778
214451 3.25568
214502 3.88230
214554 5.08921
214605 7.51000
214653 11.4015
214700 14.6558
214748 12.9938
214795 9.49804
214840 7.13297
214886 5.69460
214931 4.80562
214976 4.22912
215066 3.55549
215157 3.18990
215247 2.96519
215338 2.81445
215519 2.62390
215699 2.50543
215880 2.42139
216242 2.30142
216965 2.13267
217689 1.99130
219136 1.71475
220583 1.41470
222029 1.08139
223476 0.730798
224923 0.449015
225647 0.413432
226008 0.451441
226370 0.545081
226761 0.729979
227153 1.02778
227544 1.46678
227935 2.07033
228718 3.78163
229500 5.87389
230283 7.65711
231065 8.63162
232630 8.60363
233778 7.93102
234925 7.19682
236073 6.50408
237220 5.84560
238368 5.16220
238941 4.77445
239515 4.31752
240089 3.73218
240376 3.35808
240663 2.89948
240949 2.32162
241236 1.58934
241523 0.755655
241667 0.460561
241738 0.441823
241774 0.491597
241810 0.595702
241859 0.850974
241908 1.27408
241956 1.91132
242005 2.79928
242103 5.37195
242200 8.60898
242298 11.4804
242395 13.1766
242590 13.5223
242822 12.1600
243053 10.8390
243285 9.83807
243516 9.09354
243748 8.52683
243979 8.08340
244443 7.43301
244906 6.97501
245369 6.63056
246295 6.13509
247221 5.78338
248148 5.51128
250000 5.09774
250000 5.09771
250001 5.09759
250001 5.09748
250003 5.09725
250005 5.09680
250009 5.09592
250019 5.09416
250037 5.09062
250074 5.08357
250148 5.06957
250296 5.04198
250592 4.98832
251184 4.88642
252368 4.69992
254736 4.37140
257104 4.06551
257696 3.98461
258288 3.89414
258584 3.84052
258880 3.77485
259176 3.69929
259250 3.70045
259287 3.72138
259324 3.77874
259361 3.92544
259379 4.07432
259398 4.32893
259416 4.78902
259435 5.68566
259453 7.60732
259462 9.35653
259472 12.0260
259486 18.4563
259500 23.9397
259514 21.3752
259529 15.7284
259541 12.0856
259554 9.77469
259566 8.30150
259579 7.32521
259604 6.16439
259629 5.52879
259654 5.13774
259680 4.87855
259730 4.56230
259780 4.37857
259831 4.25964
259931 4.11399
260032 4.02677
260133 3.96708
260334 3.88669
260535 3.83081
260737 3.78653
261140 3.71451
261945 3.59595
262751 3.48815
265973 3.05372
267584 2.80798
269195 2.52298
270000 2.35663
270806 2.16411
271611 1.94179
271812 1.90222
271913 1.90236
272014 1.93905
272115 2.06568
272165 2.20489
272215 2.44862
272266 2.89395
272316 3.75459
272366 5.55513
272391 7.16379
272417 9.55670
272458 15.7160
272500 21.1365
272542 18.8738
272584 13.5101
272627 9.56185
272670 7.22222
272713 5.80839
272756 4.90421
272799 4.29246
272842 3.85794
272928 3.29032
273015 2.93978
273101 2.70211
273273 2.39653
273446 2.20158
273618 2.05954
273963 1.84989
274652 1.54106
275342 1.27673
276721 0.807211
277411 0.649217
278100 0.643869
278400 0.727907
278700 0.889442
279300 1.51910
280500 3.93324
281100 5.00850
281700 5.46287
282900 4.75268
283488 3.94709
284075 2.94893
284663 1.86357
284956 1.47837
285103 1.44295
285250 1.61856
285438 2.35904
285625 3.99057
286000 10.0076
286375 14.4326
286750 14.4422
287069 13.2542
287388 12.0388
287706 11.0121
288025 10.1789
288663 8.94430
289300 8.08190
290575 6.94220
291850 6.19439
293125 5.63672
294400 5.17627
295675 4.75189
296312 4.54238
296472 4.50570
296552 4.50185
296631 4.52372
296711 4.60942
296751 4.70758
296791 4.88504
296830 5.22464
296870 5.92927
296890 6.57121
296910 7.58854
296930 9.25665
296950 12.0201
296975 17.5319
297000 22.0059
297025 19.4464
297050 14.4038
297068 11.7048
297087 9.86039
297105 8.60557
297123 7.73592
297159 6.64617
297196 6.02008
297232 5.62469
297268 5.35782
297341 5.02301
297414 4.82114
297486 4.68442
297631 4.50319
297777 4.37929
297922 4.28138
298213 4.12074
298503 3.98736
298649 3.93657
298794 3.91368
298939 3.96285
299012 4.05049
299084 4.22744
299157 4.57874
299230 5.29366
299302 6.83689
299375 10.3128
299438 16.0033
299500 21.4045
299563 19.8549
299625 15.1057
299687 11.5633
299749 9.37138
299811 7.99877
299874 7.09528
299998 6.01359
300122 5.40076
300246 5.00576
300370 4.72622
300619 4.34109
300867 4.06709
301116 3.84157
301613 3.43264
302109 2.98658
302358 2.71833
302606 2.39820
302855 2.00308
303103 1.50908
303352 0.930830
303476 0.673567
303538 0.590535
303600 0.569425
303650 0.622154
303700 0.763739
303750 1.02288
303800 1.42785
303900 2.73466
304000 4.54862
304200 7.50409
304400 8.11853
304573 7.78730
304745 7.31283
304918 6.87233
305090 6.49899
305435 5.92916
305780 5.52327
306125 5.21911
306470 4.98012
307160 4.61971
307850 4.34954
308540 4.12945
309920 3.76715
311300 3.45104
312680 3.14126
313370 2.97629
314060 2.79137
314405 2.68400
314750 2.56036
314923 2.49565
315095 2.45737
315182 2.49224
315225 2.55368
315268 2.68213
315311 2.95119
315354 3.54162
315376 4.09281
315397 4.96648
315419 6.40072
315440 8.74625
315470 14.0848
315500 19.0107
315530 17.3856
315560 12.8867
315585 9.95793
315611 8.03579
315636 6.77125
315661 5.91157
315712 4.85904
315763 4.26077
315814 3.88266
315865 3.62534
315966 3.29774
316068 3.09588
316170 2.95638
316373 2.76774
316576 2.63668
316779 2.53279
317186 2.36333
317593 2.22146
317999 2.11923
318202 2.11577
318406 2.22333
318507 2.38511
318609 2.71873
318710 3.42389
318812 4.94712
318906 7.57140
319000 10.0396
319094 9.25295
319188 7.00549
319303 5.06224
319417 3.97748
319532 3.34237
319646 2.93667
319876 2.44828
320105 2.15319
320563 1.77202
321022 1.48949
321480 1.23747
321938 1.00647
322168 0.924696
322282 0.914786
322397 0.956108
322511 1.11175
322626 1.55032
322683 2.00835
322741 2.79196
322798 4.16606
322855 6.58624
322928 11.8590
323000 17.0076
323073 15.7665
323145 11.4459
323214 8.28186
323283 6.26404
323352 4.97345
323421 4.11284
323559 3.07092
323698 2.48118
323974 1.85650
324250 1.54851
324594 1.36939
324938 1.33721
325625 1.65270
326313 2.47395
327000 3.63898
328375 5.37082
329750 5.41753
331088 4.80632
332425 4.10749
333763 3.43890
335100 2.80173
337775 1.57225
339113 1.02127
339781 0.808846
340450 0.686005
340919 0.684823
341388 0.784458
341856 1.01651
342325 1.41160
343263 2.75131
344200 4.63622
345138 6.43593
346075 7.57071
347950 7.82351
348945 7.36287
349940 6.72008
350438 6.34229
350935 5.91420
351184 5.67294
351433 5.41331
351557 5.29200
351619 5.24861
351681 5.23916
351744 5.31318
351806 5.61294
351837 5.96785
351868 6.62318
351899 7.86507
351930 10.2346
352000 19.8019
352035 18.7578
352070 14.8429
352095 12.6028
352119 10.9739
352144 9.80664
352168 8.95952
352217 7.83759
352266 7.14501
352315 6.67807
352364 6.34021
352461 5.87419
352559 5.55365
352657 5.30618
352853 4.91649
353244 4.28624
353635 3.69005
354026 3.06741
354418 2.41450
354809 1.80118
355200 1.49422
355450 1.76721
355575 2.15584
355700 2.77032
355950 4.76434
356200 7.52947
356700 11.9745
357200 12.8010
357622 12.2231
358044 11.4386
358466 10.7083
358888 10.0821
359732 9.10441
360576 8.38213
361420 7.81528
362264 7.33599
362686 7.10821
363107 6.86782
363318 6.73131
363529 6.57315
363635 6.48853
363740 6.43306
363793 6.46637
363820 6.53122
363846 6.66531
363872 6.93626
363899 7.48899
363925 8.67671
363951 11.2955
363976 15.9795
364000 20.7199
364024 19.8847
364049 16.1897
364069 13.7125
364089 12.0166
364109 10.8684
364129 10.0732
364170 9.06912
364210 8.48370
364251 8.10536
364291 7.84352
364371 7.50375
364452 7.29036
364533 7.14114
364694 6.93868
364856 6.79942
365017 6.69159
365340 6.52297
365985 6.26663
366630 6.05464
367921 5.68342
369212 5.33963
370503 4.99326
371794 4.60357
372439 4.36077
372762 4.21171
373084 4.02792
373407 3.77993
373568 3.61205
373730 3.39234
373891 3.08370
373972 2.87449
374052 2.60837
374133 2.25902
374214 1.79205
374294 1.18576
374335 0.867542
374375 0.645104
374406 0.682655
374422 0.832535
374438 1.10645
374453 1.53049
374469 2.10709
374500 3.62401
374563 6.40165
374625 7.25510
374682 7.14177
374738 6.82761
374795 6.50767
374852 6.22854
374965 5.79540
375078 5.48530
375192 5.25346
375305 5.07224
375531 4.80164
375758 4.60142
375984 4.44041
376438 4.17993
377344 3.75458
378250 3.34764
379156 2.89571
380063 2.33621
380516 1.98598
380969 1.56743
381422 1.08968
381649 0.876798
381875 0.793169
382031 0.925649
382188 1.34440
382344 2.13052
382500 3.16774
382813 4.66359
383125 4.71438
383516 4.07607
383906 3.41895
384297 2.85720
384688 2.37347
385469 1.57487
386250 1.04581
386531 0.973835
386813 1.00424
387094 1.17087
387375 1.50894
387656 2.04642
387938 2.78956
388500 4.74165
389625 8.17091
390750 8.99961
392000 8.48150
393250 7.69964
394500 6.94826
395750 6.23348
397000 5.48603
398250 4.56589
398875 3.95105
399500 3.13501
399813 2.61595
400125 2.01023
400438 1.35291
400750 0.841416
400844 0.796590
400938 0.850549
401031 1.04148
401125 1.40922
401219 1.98778
401313 2.78752
401500 4.90994
401875 8.77542
402250 9.87675
402488 9.73503
402726 9.38869
402845 9.22360
402964 9.17050
403023 9.27649
403083 9.62262
403142 10.5535
403202 12.9673
403251 17.1098
403300 21.4391
403349 20.7934
403398 17.4751
403431 15.6181
403463 14.2204
403527 12.4059
403592 11.3408
403656 10.6581
403785 9.83019
403914 9.33205
404043 8.98409
404172 8.71759
404429 8.31707
404945 7.76759
405460 7.37513
406491 6.80742
407522 6.38872
409584 5.75474
411646 5.23676
413708 4.74534
415769 4.21650
416800 3.91458
417831 3.57515
418347 3.39793
418862 3.25127
419120 3.22829
419378 3.30921
419635 3.66195
419893 4.74979
420097 6.63745
420300 8.59142
420504 8.15214
420707 6.43882
420900 5.10326
421093 4.16481
421479 2.93597
421864 2.06835
422250 1.45165
422438 1.36651
422625 1.59225
422813 2.26781
423000 3.34547
423375 5.29171
423750 5.76556
424125 5.49366
424500 5.06956
424875 4.65775
425250 4.28613
426000 3.64415
426750 3.08480
428250 2.07868
429750 1.27872
430563 1.13626
430969 1.22977
431375 1.48161
431781 1.92402
432188 2.57083
433000 4.36678
434625 7.80339
436250 8.88107
438144 8.56513
440038 7.84913
440984 7.42471
441931 6.88501
442405 6.50006
442642 6.24295
442878 5.90755
443115 5.43621
443233 5.11517
443352 4.70420
443470 4.15993
443588 3.42161
443707 2.44165
443766 1.91452
443825 1.54129
443869 1.59727
443891 1.83156
443913 2.25928
443956 3.82706
444000 6.21056
444088 10.5799
444175 11.9280
444262 11.7136
444350 11.1666
444437 10.6362
444524 10.1877
444687 9.55152
444850 9.10008
445013 8.76460
445176 8.50423
445502 8.12049
445828 7.84329
446479 7.44584
447131 7.14658
447783 6.88368
448108 6.75274
448434 6.61378
448760 6.45657
449086 6.26385
449412 6.03233
449493 6.00282
449574 6.07428
449615 6.22717
449656 6.59507
449697 7.50550
449717 8.41455
449737 9.88186
449769 13.7456
449800 17.9158
449831 17.8284
449863 15.4675
449882 14.3613
449911 13.5069
449941 13.4916
450000 14.3136
450118 11.7487
450178 10.3411
450238 9.42379
450297 8.81870
450357 8.40038
450476 7.86738
450595 7.54347
450715 7.32357
450834 7.16250
451072 6.93594
451311 6.77728
451549 6.65414
452026 6.46231
452980 6.16576
453934 5.89471
454888 5.59102
455365 5.40382
455842 5.16833
456319 4.84223
456558 4.61789
456796 4.32267
457035 3.91087
457273 3.29412
457392 2.86025
457512 2.30822
457631 1.63344
457750 0.982819
457813 0.856789
457844 0.934117
457875 1.15212
457906 1.54600
457938 2.13198
458000 3.81007
458125 7.24095
458250 8.57268
458357 8.65926
458463 8.44579
458677 7.90430
458890 7.46253
459103 7.12761
459316 6.86709
459530 6.65643
459956 6.32430
460383 6.05223
460809 5.80008
461023 5.68231
461129 5.63473
461236 5.61048
461343 5.64560
461449 5.84257
461502 6.08574
461556 6.53405
461609 7.36567
461662 8.90377
461731 12.5502
461800 16.5701
461869 16.3528
461938 13.6403
461986 11.9845
462034 10.7466
462082 9.84272
462130 9.17539
462226 8.28307
462323 7.72802
462419 7.35446
462515 7.08682
462707 6.72760
462900 6.49411
463092 6.32644
463477 6.09245
463862 5.92701
464246 5.79625
465016 5.58646
466555 5.24567
468094 4.91871
469633 4.54215
470403 4.30990
471172 4.02321
471942 3.64407
472711 3.09616
473096 2.71386
473481 2.22140
473865 1.59718
474250 0.938079
474438 0.760328
474531 0.773105
474625 0.891586
474719 1.14426
474813 1.54841
475000 2.76929
475375 5.40440
475750 6.49411
476011 6.60311
476271 6.50657
476792 6.14722
477313 5.78080
477834 5.44997
478356 5.14122
478877 4.82441
479137 4.64604
479398 4.43952
479528 4.32729
479658 4.24146
479724 4.25499
479789 4.41031
479821 4.62095
479854 5.02523
479886 5.80641
479919 7.29889
479959 10.8008
480000 14.7619
480041 14.6877
480081 12.1357
480106 10.7130
480131 9.60106
480182 8.11127
480232 7.21539
480282 6.63998
480332 6.24350
480382 5.95600
480482 5.56479
480583 5.30774
480683 5.12171
480884 4.85920
481084 4.67019
481285 4.51737
481686 4.26320
483291 3.38108
484093 2.89221
484895 2.33016
485698 1.69534
486500 1.08537
487000 0.872934
487250 0.884385
487500 1.01662
487750 1.30037
488000 1.75398
488500 3.11290
489500 5.96384
490500 7.00927
491133 7.01407
491767 6.83079
492083 6.73695
492400 6.70800
492716 6.89316
493033 7.74391
493267 9.31470
493500 11.0952
493734 10.9134
493967 9.53326
494172 8.46937
494377 7.68562
494788 6.63413
495198 5.88781
495609 5.22635
496019 4.53944
496429 3.75194
496840 2.82727
497250 1.95279
497438 1.82651
497625 2.19036
497813 3.32774
498000 5.22744
498375 8.98169
498750 10.3122
499063 10.3023
499375 9.99064
499688 9.62518
500000 9.28158
500000 9.28137
500001 9.28085
500001 9.28033
500002 9.27940
500004 9.27743
500008 9.27349
500015 9.26562
500030 9.25007
500061 9.21926
500121 9.15879
500242 9.04245
500483 8.82762
500967 8.46139
501933 7.91542
502900 7.52581
503866 7.22881
505799 6.79164
507732 6.46932
509665 6.20717
511598 5.97519
512564 5.86178
513531 5.74085
514014 5.67082
514497 5.58218
514739 5.52113
514980 5.43284
515101 5.36849
515222 5.28240
515343 5.21908
515373 5.26604
515403 5.44633
515418 5.65991
515433 6.05457
515448 6.79964
515464 8.21675
515482 11.3908
515500 14.8275
515518 14.5814
515537 12.2215
515549 10.8178
515561 9.77513
515586 8.44301
515611 7.68867
515636 7.22513
515686 6.69839
515736 6.41582
515785 6.24101
515835 6.12284
515934 5.97224
516034 5.87886
516133 5.81395
516332 5.72629
516531 5.66615
516730 5.61949
517128 5.54570
517924 5.42779
518719 5.31911
519515 5.20410
519913 5.13954
520311 5.06614
520709 4.97796
521107 4.86534
521505 4.74334
521604 4.75149
521703 4.86451
521753 5.03109
521803 5.37868
521853 6.12364
521902 7.75235
521951 10.8825
522000 14.2338
522049 13.9218
522098 11.5519
522148 9.57968
522199 8.33921
522250 7.55608
522300 7.03757
522351 6.67589
522402 6.41318
522503 6.05979
522604 5.83413
522705 5.67756
522908 5.47158
523110 5.33812
523313 5.24068
523718 5.09826
524123 4.98840
524528 4.89235
525337 4.71189
526147 4.52441
526957 4.32480
527362 4.24086
527767 4.23622
527970 4.32785
528172 4.58325
528375 5.20650
528577 6.65950
528789 9.84299
529000 13.6953
529212 13.9553
529423 11.7583
529591 10.1505
529759 8.96518
529928 8.11448
530096 7.49315
530432 6.66386
530769 6.13905
531105 5.77242
531441 5.49557
532114 5.08580
532787 4.77680
533460 4.54205
533796 4.47355
534132 4.48325
534469 4.66970
534805 5.26230
535153 6.68514
535500 8.42207
535848 8.37298
536195 7.08310
536646 5.56193
537098 4.42427
537549 3.44533
538000 2.55103
538250 2.18430
538500 2.08814
538750 2.47638
539000 3.42972
539500 5.78300
540000 6.90654
540432 7.09454
540865 7.01451
541297 6.85458
541729 6.68128
542593 6.36509
543458 6.10467
544322 5.88908
545187 5.70545
546916 5.39723
548644 5.12679
550373 4.85209
551238 4.69228
551670 4.59859
552102 4.48870
552534 4.35282
552967 4.17706
553183 4.07566
553399 3.99843
553507 4.01372
553615 4.15614
553723 4.66746
553777 5.25635
553831 6.29017
553916 9.32598
554000 13.0848
554085 13.4772
554169 11.4660
554224 10.2017
554279 9.20446
554390 7.86577
554500 7.06343
554610 6.54749
554721 6.19297
554831 5.93571
555052 5.58738
555272 5.36038
555493 5.19821
555934 4.97443
556375 4.81871
556817 4.69694
557699 4.50246
559464 4.18280
561229 3.87121
562994 3.51989
564759 3.07646
565642 2.78857
566524 2.41620
566965 2.17722
567407 1.88795
567627 1.73163
567848 1.61340
567958 1.61984
568068 1.76070
568179 2.24029
568234 2.75027
568289 3.58007
568342 4.80762
568395 6.52783
568500 10.3275
568606 10.8770
568711 8.95126
568779 7.71067
568847 6.71211
568983 5.33539
569119 4.47912
569256 3.90622
569528 3.18350
569800 2.73510
570300 2.23802
570800 2.02260
571300 2.09521
571800 2.44160
572800 3.26803
573800 3.45944
574975 3.15694
576150 2.69640
577325 2.21540
578500 1.76513
579063 1.57334
579625 1.40521
579906 1.33787
580188 1.30893
580328 1.33903
580469 1.45434
580609 1.78737
580680 2.13312
580750 2.70020
580875 4.55309
581000 6.91908
581125 7.31347
581250 6.21224
581391 5.07912
581531 4.37273
581672 3.95398
581813 3.70697
582094 3.49364
582375 3.47957
582938 3.73213
583500 4.16228
584750 5.20845
586000 5.82107
587250 5.68562
587875 5.29892
588500 4.69244
589000 4.11612
589500 3.80813
589750 4.08647
590000 5.00447
590250 6.79810
590500 9.27911
591000 13.2942
591500 14.0896
591972 13.5355
592443 12.7846
592915 12.1066
593387 11.5382
594330 10.6663
595274 10.0255
596217 9.51758
597160 9.08506
597632 8.89022
598104 8.72676
598340 8.67968
598575 8.69737
598811 8.87439
599047 9.45332
599274 10.7958
599500 12.5592
599727 12.8129
599953 11.8971
600000 11.6957
600000 3.91769
700000 3.78792
750000 3.74834
750000 3.74834
800000 3.70877
900000 3.66607
999999 3.65004
1.00000E+06 4.29271
1.00037E+06 3.56667
1.00123E+06 3.10000
1.00188E+06 3.13333
1.00232E+06 2.96667
1.00286E+06 2.58333
1.00372E+06 2.65000
1.00459E+06 3.45000
1.00525E+06 3.76667
1.00590E+06 2.63333
1.00688E+06 2.20000
1.00731E+06 2.45000
1.00786E+06 3.66667
1.00830E+06 3.88333
1.00906E+06 3.33333
1.01005E+06 3.38333
1.01103E+06 3.21667
1.01202E+06 2.70000
1.01257E+06 2.31667
1.01466E+06 2.28333
1.01633E+06 3.58333
1.01660E+06 4.11667
1.01683E+06 4.33334
1.01700E+06 4.15000
1.01744E+06 3.03333
1.01834E+06 1.85000
1.01967E+06 2.10000
1.02049E+06 3.35000
1.02071E+06 3.48333
1.02099E+06 3.26667
1.02184E+06 1.83333
1.02218E+06 1.50000
1.02296E+06 1.46668
1.02441E+06 1.95000
1.02475E+06 2.18333
1.02542E+06 3.01667
1.02609E+06 3.43334
1.02676E+06 3.20000
1.02834E+06 3.36667
1.02924E+06 3.53333
1.03048E+06 4.06667
1.03059E+06 3.86667
1.03183E+06 2.56667
1.03217E+06 2.10001
1.03387E+06 2.21667
1.03478E+06 3.10000
1.03535E+06 2.73334
1.03580E+06 2.68333
1.03740E+06 3.25000
1.03797E+06 3.23333
1.03968E+06 2.75000
1.04071E+06 2.78333
1.04163E+06 2.66667
1.04197E+06 2.21667
1.04255E+06 1.78333
1.04312E+06 2.15000
1.04405E+06 4.95000
1.04422E+06 5.20000
1.04445E+06 5.38333
1.04451E+06 5.30000
1.04468E+06 4.83333
1.04509E+06 3.96667
1.04561E+06 3.81667
1.04613E+06 4.61667
1.04630E+06 4.38333
1.04688E+06 3.86667
1.04810E+06 3.18333
1.04868E+06 3.18333
1.05007E+06 2.55000
1.05100E+06 2.25000
1.05146E+06 2.38333
1.05181E+06 2.63333
1.05263E+06 4.13333
1.05298E+06 4.18333
1.05345E+06 3.58333
1.05357E+06 3.51667
1.05369E+06 3.46667
1.05474E+06 1.95000
1.05638E+06 1.58333
1.05755E+06 2.21667
1.05802E+06 2.00000
1.05837E+06 1.98333
1.05919E+06 2.88333
1.05990E+06 3.16667
1.06049E+06 2.91667
1.06084E+06 2.61667
1.06120E+06 2.51667
1.06167E+06 2.78333
1.06249E+06 3.43333
1.06344E+06 3.88333
1.06380E+06 3.63333
1.06439E+06 3.11667
1.06498E+06 2.88333
1.06593E+06 3.50000
1.06629E+06 3.58334
1.06652E+06 3.45000
1.06747E+06 1.71667
1.06771E+06 1.51667
1.06831E+06 1.88333
1.06890E+06 2.63333
1.06938E+06 2.75001
1.07010E+06 1.96667
1.07105E+06 2.01667
1.07273E+06 3.10000
1.07357E+06 3.21667
1.07429E+06 3.11667
1.07477E+06 3.35000
1.07501E+06 3.31667
1.07573E+06 2.83333
1.07657E+06 1.86667
1.07706E+06 1.56667
1.07742E+06 1.65000
1.07802E+06 2.28333
1.07887E+06 3.46667
1.07923E+06 3.51667
1.07972E+06 3.45000
1.08032E+06 2.98333
1.08068E+06 2.80000
1.08200E+06 3.28333
1.08255E+06 3.81667
1.08291E+06 4.75000
1.08334E+06 4.93333
1.08370E+06 4.86667
1.08401E+06 4.60000
1.08453E+06 4.26667
1.08562E+06 3.70000
1.08697E+06 3.75000
1.08782E+06 3.31668
1.08831E+06 3.31667
1.08917E+06 4.23333
1.08954E+06 4.38333
1.08991E+06 4.30000
1.09015E+06 4.05000
1.09089E+06 3.41668
1.09151E+06 3.58333
1.09249E+06 2.51667
1.09372E+06 1.90000
1.09508E+06 1.65000
1.09694E+06 2.10000
1.09732E+06 2.03333
1.09819E+06 1.76667
1.09943E+06 2.81667
1.10133E+06 3.08333
1.10157E+06 3.36667
1.10220E+06 3.76667
1.10257E+06 3.20000
1.10330E+06 2.76668
1.10417E+06 3.11667
1.10467E+06 3.05000
1.10530E+06 2.61667
1.10568E+06 2.25000
1.10618E+06 2.43333
1.10681E+06 3.40000
1.10744E+06 3.80000
1.10832E+06 3.40000
1.10920E+06 2.86667
1.10970E+06 2.98333
1.11097E+06 4.45000
1.11160E+06 3.80000
1.11223E+06 3.33333
1.11299E+06 3.18333
1.11362E+06 3.46667
1.11426E+06 4.41667
1.11464E+06 4.66667
1.11489E+06 4.65000
1.11565E+06 4.11668
1.11629E+06 3.55000
1.11743E+06 3.55000
1.11794E+06 3.81667
1.11846E+06 3.78333
1.11935E+06 2.71667
1.11999E+06 2.35000
1.12076E+06 2.56667
1.12165E+06 1.86667
1.12191E+06 1.73333
1.12255E+06 1.86667
1.12332E+06 2.58333
1.12435E+06 3.10000
1.12474E+06 3.11667
1.12499E+06 2.90000
1.12693E+06 2.93333
1.12757E+06 1.70000
1.12822E+06 1.33333
1.12886E+06 1.25000
1.12938E+06 1.33333
1.13005E+06 2.25000
1.13070E+06 3.38333
1.13109E+06 3.28334
1.13129E+06 3.05000
1.13148E+06 3.01667
1.13227E+06 2.50000
1.13305E+06 2.75000
1.13370E+06 2.98333
1.13501E+06 3.15000
1.13566E+06 3.60000
1.13592E+06 3.51667
1.13670E+06 3.13333
1.13775E+06 2.40000
1.13919E+06 1.80000
1.13985E+06 1.70000
1.14064E+06 1.91667
1.14143E+06 2.41667
1.14210E+06 3.02232
1.14261E+06 3.48333
1.14314E+06 3.83333
1.14368E+06 4.03333
1.14394E+06 3.91667
1.14434E+06 3.55000
1.14513E+06 3.58333
1.14632E+06 4.26667
1.14659E+06 4.18333
1.14765E+06 3.11667
1.14831E+06 2.81667
1.14937E+06 3.35000
1.15044E+06 3.23333
1.15177E+06 4.05000
1.15244E+06 4.08333
1.15297E+06 3.43333
1.15377E+06 3.31667
1.15511E+06 4.23333
1.15605E+06 4.95000
1.15659E+06 5.25000
1.15685E+06 5.13333
1.15739E+06 4.55000
1.15847E+06 4.21667
1.15887E+06 3.93333
1.15995E+06 3.68333
1.16116E+06 2.63334
1.16143E+06 2.73333
1.16238E+06 3.11667
1.16332E+06 3.58333
1.16373E+06 3.30000
1.16427E+06 3.20000
1.16468E+06 3.23333
1.16495E+06 3.46667
1.16604E+06 4.78333
1.16644E+06 4.96667
1.16699E+06 4.15000
1.16808E+06 3.00000
1.16849E+06 2.91667
1.17000E+06 3.98305
1.17026E+06 4.16667
1.17122E+06 4.21667
1.17204E+06 4.68333
1.17313E+06 4.15000
1.17396E+06 4.70000
1.17451E+06 4.33333
1.17561E+06 2.60000
1.17616E+06 2.00000
1.17726E+06 1.55000
1.17795E+06 1.45000
1.17864E+06 1.48333
1.17905E+06 1.61667
1.18016E+06 2.36667
1.18099E+06 2.63333
1.18168E+06 2.43333
1.18265E+06 2.65000
1.18321E+06 2.58333
1.18348E+06 2.45000
1.18462E+06 2.38333
1.18602E+06 2.98333
1.18710E+06 3.14360
1.18748E+06 3.20000
1.18853E+06 2.90000
1.18958E+06 3.18333
1.19042E+06 3.23333
1.19147E+06 3.15000
1.19210E+06 2.95031
1.19211E+06 2.94838
1.19310E+06 2.63330
1.19367E+06 2.66664
1.19416E+06 3.31665
1.19472E+06 4.26664
1.19514E+06 4.46664
1.19543E+06 4.26665
1.19657E+06 2.84998
1.19710E+06 2.73246
1.19875E+06 2.36664
1.20030E+06 2.99997
1.20116E+06 2.41665
1.20372E+06 2.84997
1.20400E+06 3.18330
1.20472E+06 3.19998
1.20557E+06 2.78331
1.20700E+06 3.14998
1.20829E+06 2.73331
1.20987E+06 2.83331
1.21116E+06 3.46665
1.21332E+06 3.76665
1.21389E+06 4.11665
1.21432E+06 4.61665
1.21461E+06 4.64998
1.21482E+06 4.48331
1.21511E+06 4.23332
1.21610E+06 3.13331
1.21741E+06 2.46666
1.21799E+06 2.31665
1.21842E+06 2.38331
1.21975E+06 2.96665
1.22106E+06 3.86665
1.22164E+06 3.89999
1.22266E+06 4.93331
1.22295E+06 5.03332
1.22332E+06 4.84999
1.22383E+06 4.49998
1.22448E+06 3.63332
1.22470E+06 3.43332
1.22500E+06 3.34999
1.22536E+06 3.39998
1.22565E+06 3.46666
1.22624E+06 3.93332
1.22705E+06 4.79999
1.22756E+06 5.71666
1.22771E+06 5.79999
1.22800E+06 5.61666
1.22866E+06 4.59999
1.22910E+06 4.36666
1.22925E+06 4.13332
1.22947E+06 4.13332
1.22976E+06 4.34999
1.22999E+06 4.68332
1.23028E+06 4.74999
1.23096E+06 3.83332
1.23162E+06 2.73333
1.23280E+06 2.01667
1.23369E+06 2.33332
1.23458E+06 2.34999
1.23605E+06 2.88332
1.23701E+06 4.04999
1.23776E+06 4.96666
1.23805E+06 5.09999
1.23820E+06 4.99999
1.23865E+06 4.51667
1.23887E+06 4.44999
1.23939E+06 3.88333
1.23963E+06 3.81667
1.24015E+06 3.83332
1.24104E+06 4.18332
1.24149E+06 4.01667
1.24210E+06 3.37278
1.24239E+06 3.06666
1.24358E+06 2.58332
1.24418E+06 2.24999
1.24463E+06 2.25000
1.24493E+06 2.35000
1.24568E+06 2.71666
1.24673E+06 3.28333
1.24718E+06 3.33332
1.24793E+06 2.91667
1.24914E+06 2.91667
1.25000E+06 2.83306
1.25034E+06 2.80000
1.25065E+06 2.86667
1.25087E+06 3.01667
1.25162E+06 3.78333
1.25283E+06 4.43333
1.25404E+06 3.20000
1.25586E+06 2.95000
1.25662E+06 3.00000
1.25753E+06 3.33333
1.25921E+06 3.70000
1.25982E+06 3.56667
1.26089E+06 2.86667
1.26135E+06 2.76667
1.26226E+06 2.86667
1.26410E+06 3.48333
1.26548E+06 4.03333
1.26579E+06 3.95000
1.26665E+06 3.26667
1.26700E+06 3.30001
1.26761E+06 3.70000
1.26777E+06 4.00000
1.26823E+06 4.45000
1.26839E+06 4.33333
1.26900E+06 3.36667
1.26962E+06 2.53333
1.27051E+06 2.16667
1.27128E+06 2.30000
1.27361E+06 3.86667
1.27469E+06 4.21667
1.27594E+06 4.65000
1.27656E+06 4.45000
1.27687E+06 4.00000
1.27843E+06 2.68333
1.27921E+06 2.40000
1.27999E+06 2.45000
1.28063E+06 2.65000
1.28204E+06 4.60000
1.28243E+06 4.46667
1.28335E+06 3.68333
1.28460E+06 4.15000
1.28617E+06 3.81667
1.28775E+06 3.10000
1.28822E+06 3.03333
1.28933E+06 4.35000
1.28980E+06 4.48333
1.29059E+06 4.40000
1.29257E+06 4.98333
1.29368E+06 5.41667
1.29408E+06 5.55000
1.29423E+06 5.45000
1.29567E+06 4.66667
1.29678E+06 4.93334
1.29750E+06 3.96667
1.29878E+06 3.01667
1.29910E+06 2.88333
1.29950E+06 2.58333
1.30033E+06 2.71667
1.30129E+06 3.36667
1.30274E+06 3.90000
1.30322E+06 3.81667
1.30418E+06 3.11667
1.30467E+06 3.13333
1.30611E+06 3.53333
1.30692E+06 3.38333
1.30724E+06 3.15000
1.30805E+06 3.00000
1.30870E+06 3.06667
1.31064E+06 3.71667
1.31161E+06 3.33333
1.31307E+06 3.36667
1.31433E+06 3.13333
1.31480E+06 3.28333
1.31561E+06 4.53333
1.31618E+06 4.68333
1.31732E+06 4.08333
1.31781E+06 3.98333
1.31830E+06 4.10000
1.31936E+06 5.53333
1.31969E+06 5.80000
1.32018E+06 5.43333
1.32100E+06 3.90000
1.32206E+06 3.01667
1.32529E+06 3.01667
1.32678E+06 4.23333
1.32719E+06 4.30000
1.32744E+06 4.08333
1.32768E+06 3.70000
1.32859E+06 3.15000
1.32909E+06 3.03333
1.32934E+06 3.11667
1.33107E+06 3.95000
1.33157E+06 3.98333
1.33240E+06 5.00000
1.33257E+06 5.23333
1.33290E+06 5.30000
1.33315E+06 5.21667
1.33340E+06 4.85000
1.33406E+06 4.01667
1.33473E+06 3.58333
1.33680E+06 3.33333
1.33897E+06 3.30000
1.33997E+06 3.11667
1.34148E+06 2.93333
1.34166E+06 2.87500
1.34200E+06 2.92500
1.34316E+06 3.45000
1.34451E+06 4.21250
1.34560E+06 4.26250
1.34602E+06 4.60000
1.34670E+06 4.52500
1.34695E+06 4.30000
1.34746E+06 3.91250
1.34796E+06 3.60000
1.34813E+06 3.63750
1.34856E+06 3.88750
1.34923E+06 4.72500
1.34982E+06 5.17500
1.35008E+06 5.27500
1.35042E+06 5.18750
1.35118E+06 4.53750
1.35152E+06 4.23750
1.35177E+06 4.13750
1.35211E+06 4.23750
1.35271E+06 4.52500
1.35347E+06 4.73750
1.35415E+06 5.01250
1.35449E+06 4.86250
1.35526E+06 4.50000
1.35594E+06 3.77500
1.35714E+06 3.28750
1.35850E+06 3.02500
1.36038E+06 2.63750
1.36210E+06 2.83750
1.36416E+06 2.45000
1.36605E+06 2.00000
1.36709E+06 1.96250
1.36766E+06 2.00000
1.36800E+06 2.06250
1.36835E+06 2.23750
1.36904E+06 2.82500
1.36973E+06 3.70000
1.37034E+06 4.42500
1.37077E+06 4.73750
1.37103E+06 4.66250
1.37120E+06 4.51250
1.37189E+06 3.76250
1.37250E+06 3.02500
1.37302E+06 2.87500
1.37364E+06 3.11250
1.37469E+06 4.26250
1.37556E+06 4.28750
1.37712E+06 3.62500
1.37904E+06 3.57500
1.37939E+06 3.77500
1.37974E+06 3.78750
1.38044E+06 3.58750
1.38114E+06 3.91250
1.38237E+06 3.91250
1.38272E+06 3.80000
1.38342E+06 3.80000
1.38430E+06 4.01250
1.38483E+06 4.03750
1.38624E+06 3.10000
1.38712E+06 2.55000
1.38784E+06 2.61250
1.38890E+06 2.56250
1.39014E+06 3.25000
1.39120E+06 3.55000
1.39191E+06 3.40000
1.39332E+06 3.28750
1.39475E+06 2.77500
1.39760E+06 1.87500
1.40063E+06 2.88750
1.40206E+06 3.32500
1.40260E+06 3.20000
1.40368E+06 3.52500
1.40422E+06 3.53750
1.40547E+06 2.61250
1.40637E+06 2.21250
1.40709E+06 2.21250
1.40745E+06 2.35000
1.40872E+06 3.38750
1.40962E+06 3.21250
1.41051E+06 2.83750
1.41070E+06 3.11250
1.41106E+06 3.16250
1.41251E+06 3.62500
1.41342E+06 3.56250
1.41433E+06 3.00000
1.41542E+06 2.96250
1.41705E+06 2.71251
1.41887E+06 3.48750
1.41997E+06 3.16250
1.42180E+06 3.12500
1.42235E+06 2.96251
1.42271E+06 2.91250
1.42320E+06 2.93750
1.42436E+06 3.73750
1.42509E+06 4.58750
1.42610E+06 4.95000
1.42629E+06 4.63750
1.42721E+06 3.83750
1.42822E+06 3.27500
1.42891E+06 3.11250
1.43020E+06 3.13750
1.43093E+06 3.32500
1.43223E+06 4.47500
1.43482E+06 4.65000
1.43519E+06 4.32501
1.43649E+06 3.17500
1.43686E+06 2.98750
1.43910E+06 3.00000
1.44022E+06 3.58750
1.44134E+06 3.88750
1.44171E+06 3.62500
1.44264E+06 2.85000
1.44339E+06 2.48750
1.44396E+06 2.47500
1.44696E+06 2.71250
1.44902E+06 2.98750
1.44940E+06 3.30000
1.45053E+06 3.67500
1.45147E+06 3.73750
1.45185E+06 3.56250
1.45281E+06 3.72500
1.45357E+06 3.71250
1.45508E+06 3.05001
1.45660E+06 3.17500
1.45808E+06 2.88750
1.45853E+06 2.96250
1.46015E+06 3.96250
1.46072E+06 4.20000
1.46139E+06 3.60000
1.46305E+06 3.60000
1.46554E+06 4.17500
1.46630E+06 4.17500
1.46688E+06 3.82500
1.46803E+06 3.73751
1.46899E+06 3.98750
1.47226E+06 4.63750
1.47265E+06 4.67500
1.47419E+06 3.48750
1.47593E+06 3.20000
1.47709E+06 2.83750
1.47864E+06 2.90000
1.47981E+06 3.22500
1.48136E+06 4.38750
1.48195E+06 4.55000
1.48292E+06 3.71250
1.48351E+06 3.53750
1.48507E+06 2.98750
1.48683E+06 2.93750
1.48878E+06 3.17500
1.48937E+06 3.02500
1.49134E+06 3.08750
1.49271E+06 3.66250
1.49350E+06 3.60000
1.49449E+06 3.02500
1.49626E+06 3.20000
1.49705E+06 3.65000
1.49883E+06 3.55000
1.49923E+06 3.46251
1.49964E+06 3.46250
1.50000E+06 3.69883
1.50103E+06 4.37500
1.50153E+06 4.72500
1.50203E+06 4.66250
1.50252E+06 4.38751
1.50322E+06 4.08750
1.50382E+06 3.78750
1.50649E+06 3.86250
1.50709E+06 3.66250
1.50869E+06 2.95000
1.50989E+06 2.57500
1.51170E+06 2.21250
1.51471E+06 2.71250
1.51571E+06 3.25000
1.51652E+06 4.08750
1.51773E+06 3.77500
1.51835E+06 3.73750
1.52017E+06 3.70000
1.52139E+06 3.38750
1.52463E+06 3.20000
1.52646E+06 2.68750
1.52789E+06 2.47500
1.52932E+06 2.60000
1.52973E+06 2.86250
1.53054E+06 3.65000
1.53116E+06 3.82500
1.53177E+06 3.75000
1.53259E+06 3.21250
1.53361E+06 3.01250
1.53423E+06 3.02500
1.53484E+06 3.28750
1.53587E+06 3.28750
1.53690E+06 2.91250
1.53813E+06 2.80000
1.53896E+06 2.60000
1.54081E+06 2.87500
1.54164E+06 2.56250
1.54350E+06 2.56250
1.54633E+06 3.05000
1.54716E+06 3.55000
1.54788E+06 3.86250
1.54851E+06 4.25000
1.54903E+06 4.48750
1.55038E+06 4.20000
1.55059E+06 3.85000
1.55132E+06 3.47500
1.55262E+06 2.92500
1.55471E+06 3.11250
1.55534E+06 3.06250
1.55660E+06 2.62500
1.55722E+06 2.47500
1.55806E+06 2.52500
1.55953E+06 3.53750
1.56122E+06 3.83750
1.56185E+06 3.83750
1.56311E+06 3.56251
1.56396E+06 3.22500
1.56544E+06 2.83750
1.56607E+06 2.75000
1.56713E+06 3.35000
1.56819E+06 3.48750
1.57095E+06 3.48750
1.57244E+06 3.41250
1.57329E+06 3.12500
1.57371E+06 2.87500
1.57521E+06 2.72500
1.57627E+06 3.26250
1.57734E+06 3.45000
1.57798E+06 3.45000
1.57905E+06 3.20000
1.57991E+06 3.08750
1.58141E+06 3.05000
1.58291E+06 3.56250
1.58463E+06 3.22500
1.58567E+06 3.10000
1.58630E+06 3.37500
1.58684E+06 3.11250
1.58722E+06 3.05000
1.58758E+06 3.08750
1.58952E+06 3.47500
1.59060E+06 3.32500
1.59170E+06 3.11250
1.59279E+06 2.62500
1.59366E+06 2.37500
1.59474E+06 2.31250
1.59561E+06 2.03750
1.59692E+06 1.96250
1.59779E+06 2.02500
1.59888E+06 2.21250
1.60107E+06 2.30000
1.60194E+06 2.60000
1.60325E+06 3.03750
1.60457E+06 2.85000
1.60545E+06 2.61250
1.60611E+06 2.46251
1.60776E+06 2.41250
1.60812E+06 2.53750
1.60900E+06 3.01250
1.60988E+06 4.23750
1.61055E+06 4.90000
1.61099E+06 5.36250
1.61154E+06 5.46250
1.61187E+06 5.33750
1.61298E+06 4.57500
1.61342E+06 4.02500
1.61521E+06 4.12500
1.61698E+06 3.53750
1.61765E+06 3.35000
1.61898E+06 3.30000
1.62054E+06 3.33750
1.62143E+06 3.72500
1.62210E+06 3.80000
1.62254E+06 3.68750
1.62433E+06 3.06250
1.62540E+06 2.98750
1.62593E+06 3.03750
1.62627E+06 3.11250
1.62683E+06 3.68750
1.62772E+06 4.35000
1.62817E+06 4.47500
1.62862E+06 4.38750
1.62896E+06 3.96250
1.62963E+06 3.56250
1.63162E+06 2.51250
1.63568E+06 2.98750
1.63749E+06 2.96250
1.63907E+06 2.45000
1.63975E+06 2.52500
1.64088E+06 3.28750
1.64157E+06 3.45000
1.64202E+06 3.15000
1.64270E+06 2.65000
1.64338E+06 2.31250
1.64384E+06 2.28750
1.64429E+06 2.58751
1.64611E+06 3.45000
1.64726E+06 3.26250
1.64840E+06 2.86250
1.64886E+06 2.85000
1.65160E+06 3.21250
1.65297E+06 3.45000
1.65389E+06 3.42500
1.65550E+06 2.96250
1.65665E+06 3.33750
1.65965E+06 2.92500
1.66057E+06 2.68750
1.66126E+06 2.68750
1.66219E+06 2.90000
1.66358E+06 3.38750
1.66406E+06 3.72500
1.66708E+06 4.36250
1.66801E+06 4.26250
1.66987E+06 3.82500
1.67127E+06 3.97500
1.67197E+06 3.97500
1.67430E+06 3.67501
1.67571E+06 3.27500
1.67782E+06 3.96250
1.67876E+06 3.85000
1.67993E+06 3.16251
1.68111E+06 2.70000
1.68205E+06 2.91250
1.68417E+06 2.98750
1.68559E+06 3.05000
1.68748E+06 3.42500
1.68795E+06 3.28750
1.69151E+06 2.93750
1.69341E+06 2.38750
1.69483E+06 2.31250
1.69650E+06 2.55000
1.69722E+06 2.36250
1.69865E+06 2.38750
1.69961E+06 2.68750
1.70000E+06 2.87720
1.70200E+06 3.85000
1.70344E+06 3.82500
1.70392E+06 4.03750
1.70512E+06 4.75000
1.70584E+06 4.53750
1.70777E+06 3.53750
1.70970E+06 3.63750
1.71066E+06 3.47500
1.71115E+06 3.47500
1.71236E+06 3.90000
1.71356E+06 4.31250
1.71429E+06 4.38750
1.71502E+06 4.30000
1.71672E+06 3.76250
1.71818E+06 3.73750
1.72110E+06 3.03750
1.72183E+06 3.03750
1.72232E+06 3.21250
1.72354E+06 3.18750
1.72549E+06 2.81250
1.72696E+06 3.12500
1.72868E+06 3.40000
1.73064E+06 2.77500
1.73138E+06 2.62500
1.73236E+06 2.60000
1.73310E+06 2.80000
1.73705E+06 3.18750
1.73952E+06 3.18750
1.74125E+06 3.66250
1.74349E+06 3.00000
1.74523E+06 2.63750
1.74748E+06 3.17500
1.74922E+06 2.96250
1.75000E+06 2.97668
1.75197E+06 3.01250
1.75322E+06 3.18750
1.75548E+06 2.57500
1.75649E+06 2.51250
1.75726E+06 2.55000
1.75927E+06 3.52500
1.76028E+06 3.36250
1.76281E+06 2.80000
1.76483E+06 2.47500
1.76914E+06 2.47500
1.77245E+06 3.38750
1.77449E+06 3.45001
1.77653E+06 3.40000
1.77730E+06 3.26250
1.77934E+06 2.90000
1.78165E+06 2.71250
1.78294E+06 2.97500
1.78371E+06 3.01250
1.78551E+06 2.75000
1.78783E+06 2.47500
1.78886E+06 2.55000
1.79352E+06 3.57500
1.79534E+06 4.53750
1.79638E+06 4.58750
1.79820E+06 4.21250
1.79950E+06 4.78750
1.80028E+06 4.72500
1.80132E+06 4.16250
1.80315E+06 3.96250
1.80577E+06 3.78750
1.80708E+06 3.90000
1.80892E+06 4.55000
1.81076E+06 4.40000
1.81155E+06 3.92500
1.81260E+06 3.72500
1.81471E+06 3.25000
1.81735E+06 3.40000
1.81841E+06 3.22500
1.81947E+06 2.80000
1.82159E+06 2.45000
1.82291E+06 2.48750
1.82504E+06 3.35000
1.82558E+06 3.31250
1.82771E+06 2.71250
1.82931E+06 2.50000
1.83038E+06 2.65000
1.83547E+06 2.55000
1.83735E+06 3.12500
1.83816E+06 3.08750
1.83869E+06 2.82501
1.84031E+06 2.77500
1.84139E+06 2.90000
1.84328E+06 2.67500
1.84409E+06 2.75000
1.84544E+06 3.67500
1.84598E+06 3.81250
1.84679E+06 3.70000
1.84788E+06 3.50000
1.84896E+06 2.88750
1.85032E+06 2.90000
1.85250E+06 3.20000
1.85359E+06 3.06250
1.85495E+06 3.00001
1.85659E+06 3.21250
1.85768E+06 3.13750
1.85959E+06 2.90000
1.86014E+06 3.17500
1.86096E+06 3.23750
1.86233E+06 3.12500
1.86386E+06 2.71250
1.86661E+06 2.41250
1.86771E+06 2.05000
1.87020E+06 2.12500
1.87130E+06 2.36250
1.87324E+06 2.15000
1.87407E+06 2.13750
1.87629E+06 2.48750
1.87712E+06 2.43750
1.87767E+06 2.26250
1.87962E+06 2.13750
1.88045E+06 2.27500
1.88296E+06 2.83750
1.88548E+06 2.83750
1.88603E+06 3.22500
1.88855E+06 3.57500
1.88940E+06 3.50000
1.89079E+06 3.30000
1.89276E+06 2.96250
1.89614E+06 3.02500
1.89811E+06 2.70000
1.89953E+06 3.03750
1.90000E+06 3.22987
1.90179E+06 3.96250
1.90292E+06 4.00000
1.90406E+06 3.55000
1.90519E+06 3.20000
1.90832E+06 3.02500
1.90946E+06 3.11250
1.91117E+06 3.85000
1.91231E+06 3.78750
1.91374E+06 3.26250
1.91488E+06 2.93750
1.91602E+06 3.03750
1.91775E+06 3.28750
1.91861E+06 3.05000
1.92292E+06 2.52500
1.92436E+06 2.82500
1.92580E+06 2.80000
1.92753E+06 2.51250
1.92956E+06 2.18750
1.93187E+06 2.23750
1.93245E+06 2.37500
1.93390E+06 2.62500
1.93535E+06 2.37500
1.93623E+06 2.37500
1.93885E+06 2.85000
1.94002E+06 2.81250
1.94147E+06 3.01250
1.94206E+06 3.38750
1.94352E+06 3.47500
1.94469E+06 3.18750
1.94674E+06 3.28750
1.94909E+06 3.76250
1.94997E+06 3.48750
1.95144E+06 3.16250
1.95262E+06 2.52500
1.95380E+06 2.35001
1.95793E+06 2.12500
1.96178E+06 2.66250
1.96445E+06 2.53750
1.96624E+06 3.11250
1.96803E+06 3.00000
1.96833E+06 2.70000
1.96922E+06 2.56250
1.97161E+06 3.07500
1.97340E+06 3.28750
1.97460E+06 3.06250
1.97610E+06 3.05000
1.97760E+06 3.46250
1.98060E+06 3.92500
1.98302E+06 3.38750
1.98452E+06 2.73750
1.98603E+06 2.61250
1.98755E+06 3.06250
1.98967E+06 3.07500
1.99300E+06 3.10000
1.99452E+06 2.91250
1.99604E+06 3.22500
1.99787E+06 3.45000
1.99940E+06 2.90000
2.00000E+06 2.83249
2.00000E+06 2.83227
2.00062E+06 2.76250
2.00215E+06 3.22500
2.00429E+06 2.90000
2.00613E+06 2.66250
2.00705E+06 2.71250
2.00858E+06 3.20000
2.00951E+06 3.23750
2.01054E+06 3.02500
2.01259E+06 2.67500
2.01435E+06 2.66250
2.01581E+06 3.01250
2.01905E+06 3.36250
2.02022E+06 3.22500
2.02259E+06 2.73750
2.02436E+06 2.63750
2.02731E+06 3.43750
2.02850E+06 3.32500
2.02998E+06 2.80000
2.03266E+06 3.16250
2.03385E+06 3.78750
2.03534E+06 4.33750
2.03623E+06 4.22501
2.03712E+06 3.67500
2.03862E+06 3.17500
2.04101E+06 3.72500
2.04191E+06 3.77500
2.04370E+06 3.28750
2.04851E+06 3.20000
2.05001E+06 3.35000
2.05062E+06 3.32500
2.05242E+06 2.96250
2.05363E+06 2.81250
2.05514E+06 2.81250
2.05786E+06 3.20000
2.06120E+06 3.70000
2.06211E+06 3.56250
2.06393E+06 3.42500
2.06820E+06 3.21250
2.07064E+06 3.31250
2.07187E+06 3.41250
2.07463E+06 2.77500
2.07585E+06 2.53750
2.07830E+06 3.22500
2.07923E+06 3.33750
2.08015E+06 3.28750
2.08200E+06 2.85000
2.08238E+06 2.83866
2.08240E+06 2.83791
2.08324E+06 2.81251
2.08540E+06 3.08751
2.08663E+06 3.12501
2.08880E+06 2.67500
2.09035E+06 2.67501
2.09345E+06 3.42501
2.09470E+06 3.66250
2.09594E+06 3.45001
2.09719E+06 3.16251
2.09937E+06 2.82501
2.10031E+06 2.62501
2.10375E+06 2.47501
2.10531E+06 2.53751
2.10751E+06 3.16251
2.10876E+06 3.36251
2.10970E+06 3.26251
2.11160E+06 2.92501
2.11412E+06 2.71250
2.11696E+06 2.93750
2.12107E+06 2.97501
2.12361E+06 3.40001
2.12934E+06 3.85001
2.13157E+06 3.90000
2.13445E+06 3.47500
2.13637E+06 3.21251
2.13736E+06 3.27501
2.14154E+06 4.08751
2.14411E+06 3.43751
2.14604E+06 3.30000
2.14668E+06 3.43750
2.14895E+06 4.11250
2.15024E+06 3.96250
2.15186E+06 3.43751
2.15413E+06 2.91251
2.15803E+06 2.42501
2.16063E+06 2.87500
2.16357E+06 2.91251
2.16717E+06 2.75000
2.17044E+06 2.66251
2.17702E+06 2.67501
2.17867E+06 2.82500
2.17999E+06 3.43750
2.18164E+06 3.87500
2.18395E+06 3.40000
2.18528E+06 3.66251
2.18694E+06 3.58751
2.18893E+06 3.02500
2.19059E+06 2.88751
2.19293E+06 3.18751
2.19493E+06 2.97500
2.19660E+06 2.97500
2.19927E+06 3.52500
2.20195E+06 3.41250
2.20329E+06 2.90000
2.20598E+06 2.48750
2.21036E+06 3.48750
2.21137E+06 3.55000
2.21238E+06 3.41250
2.21407E+06 3.17500
2.21644E+06 3.02500
2.21983E+06 2.50000
2.22289E+06 2.46250
2.22527E+06 2.87500
2.22800E+06 3.08750
2.23175E+06 3.66251
2.23346E+06 3.75000
2.23655E+06 3.28750
2.23965E+06 2.85000
2.24205E+06 2.85001
2.24343E+06 3.07500
2.24516E+06 3.13750
2.24723E+06 2.92500
2.25000E+06 3.23574
2.25035E+06 3.27500
2.25346E+06 3.27500
2.25555E+06 3.02500
2.25729E+06 2.51250
2.26112E+06 3.53750
2.26426E+06 3.15000
2.26671E+06 3.52500
2.26847E+06 3.52500
2.27201E+06 3.40000
2.27870E+06 3.20000
2.28224E+06 2.60000
2.28365E+06 2.48750
2.28755E+06 3.07500
2.28933E+06 3.62500
2.29039E+06 3.73750
2.29146E+06 3.63750
2.29395E+06 3.00000
2.29609E+06 3.01251
2.29788E+06 3.66250
2.29967E+06 3.77500
2.30074E+06 3.72500
2.30182E+06 3.25000
2.30397E+06 2.96250
2.30613E+06 2.93750
2.30828E+06 3.58750
2.31044E+06 4.22500
2.31153E+06 4.36250
2.31224E+06 4.26250
2.31477E+06 3.62500
2.31622E+06 3.20000
2.31948E+06 3.67500
2.32129E+06 3.65001
2.32383E+06 2.92500
2.32492E+06 2.82500
2.32711E+06 2.92500
2.33186E+06 3.30000
2.33441E+06 3.67500
2.33698E+06 3.26250
2.33881E+06 3.03750
2.33950E+06 3.00449
2.33950E+06 3.00426
2.34322E+06 2.82500
2.34543E+06 2.95001
2.34765E+06 3.50000
2.34949E+06 3.71251
2.35356E+06 3.68750
2.35505E+06 3.50001
2.35801E+06 3.48750
2.36546E+06 3.57500
2.36883E+06 3.30001
2.37295E+06 3.05000
2.37400E+06 2.91527
2.37405E+06 2.90897
2.37558E+06 2.71249
2.37858E+06 2.49999
2.37972E+06 2.53750
2.38311E+06 3.03749
2.38576E+06 3.27500
2.39068E+06 3.27499
2.39334E+06 2.86249
2.39486E+06 2.81249
2.39600E+06 3.08749
2.39790E+06 3.86249
2.39981E+06 4.11249
2.40057E+06 4.02499
2.40248E+06 3.46249
2.40554E+06 3.03749
2.40938E+06 3.17499
2.41245E+06 3.36249
2.41476E+06 3.29999
2.41785E+06 2.92499
2.42016E+06 2.70000
2.42171E+06 2.55000
2.42291E+06 2.51250
2.42639E+06 3.32500
2.42911E+06 3.30000
2.43261E+06 3.27500
2.43729E+06 3.23750
2.43924E+06 3.79999
2.44159E+06 3.92500
2.44394E+06 3.76249
2.44551E+06 3.47500
2.44748E+06 3.37500
2.44945E+06 3.06249
2.45141E+06 3.28750
2.45456E+06 3.60000
2.45615E+06 3.86250
2.45812E+06 3.75000
2.45970E+06 3.45000
2.46129E+06 3.03750
2.46446E+06 3.40000
2.46803E+06 3.35000
2.47162E+06 3.53750
2.47362E+06 3.45000
2.47681E+06 3.18750
2.47842E+06 2.82500
2.48082E+06 2.56250
2.48403E+06 2.37500
2.48604E+06 2.50000
2.48926E+06 2.76250
2.49290E+06 3.58750
2.49370E+06 3.68750
2.49613E+06 3.63750
2.49735E+06 3.47500
2.50000E+06 3.34414
2.50140E+06 3.27500
2.50384E+06 3.06250
2.50546E+06 2.81251
2.50873E+06 3.30000
2.50995E+06 3.25001
2.51322E+06 2.71250
2.51649E+06 3.16250
2.51813E+06 3.37500
2.51936E+06 3.28750
2.52142E+06 2.78750
2.52265E+06 2.82500
2.52471E+06 3.02500
2.52635E+06 3.51250
2.52801E+06 3.68750
2.53007E+06 3.85000
2.53172E+06 3.71250
2.53420E+06 3.40000
2.53657E+06 3.31250
2.54155E+06 3.15000
2.54530E+06 3.12500
2.54780E+06 3.23750
2.55471E+06 3.53750
2.55785E+06 3.73750
2.56038E+06 3.72500
2.56416E+06 3.61250
2.56796E+06 3.37500
2.57304E+06 3.22500
2.57748E+06 2.97500
2.58030E+06 2.90000
2.58158E+06 2.91250
2.58457E+06 3.28750
2.58670E+06 3.52500
2.58755E+06 3.58750
2.58969E+06 3.43750
2.59312E+06 3.27500
2.59530E+06 3.13750
2.59917E+06 2.88750
2.60347E+06 3.20000
2.60649E+06 3.25000
2.61082E+06 3.78750
2.61212E+06 3.83750
2.61343E+06 3.78750
2.61646E+06 3.40000
2.62037E+06 3.47500
2.62648E+06 2.92500
2.62954E+06 3.40000
2.63304E+06 3.31250
2.63524E+06 3.01250
2.64008E+06 2.91250
2.64802E+06 2.85000
2.64979E+06 3.01250
2.65378E+06 3.06250
2.65511E+06 3.48750
2.65600E+06 3.66250
2.65733E+06 3.48750
2.66000E+06 3.03750
2.66133E+06 3.03750
2.66357E+06 3.25000
2.66670E+06 3.23750
2.66849E+06 3.07501
2.67162E+06 2.91250
2.67431E+06 2.85000
2.67521E+06 2.90000
2.67791E+06 3.26250
2.68016E+06 3.28750
2.68376E+06 3.60000
2.68738E+06 3.33750
2.68873E+06 3.28750
2.69100E+06 3.00000
2.69372E+06 2.46250
2.69599E+06 2.42500
2.69872E+06 3.00001
2.70055E+06 3.48750
2.70191E+06 3.93750
2.70328E+06 3.81250
2.70556E+06 3.32500
2.70830E+06 2.96250
2.71104E+06 2.72500
2.71448E+06 2.81250
2.71930E+06 3.10000
2.72553E+06 3.37500
2.72969E+06 3.53750
2.73317E+06 3.55001
2.73665E+06 3.30000
2.74154E+06 3.33750
2.74503E+06 3.63750
2.74713E+06 3.73750
2.75000E+06 3.35933
2.75064E+06 3.27500
2.75416E+06 2.93750
2.75698E+06 2.90000
2.75980E+06 2.91250
2.76121E+06 3.01250
2.76546E+06 3.32500
2.77183E+06 3.96250
2.77611E+06 3.40000
2.78039E+06 3.26250
2.78611E+06 3.46250
2.79185E+06 3.48750
2.79616E+06 2.92500
2.79977E+06 3.00000
2.80266E+06 3.17500
2.80989E+06 3.87500
2.81642E+06 3.85000
2.82087E+06 3.81250
2.82818E+06 3.17500
2.83406E+06 2.91250
2.83920E+06 2.88750
2.84364E+06 2.91250
2.84806E+06 2.90000
2.84955E+06 3.15000
2.85474E+06 3.52500
2.85771E+06 3.51250
2.86069E+06 3.42500
2.86516E+06 3.21250
2.86890E+06 3.33750
2.87265E+06 4.17499
2.87864E+06 3.50000
2.88392E+06 3.44999
2.88770E+06 3.17499
2.89526E+06 3.38749
2.90212E+06 3.31250
2.91203E+06 3.32500
2.91587E+06 3.52500
2.92047E+06 3.64999
2.92586E+06 3.40000
2.93203E+06 3.07500
2.93668E+06 3.48750
2.93809E+06 3.49886
2.93810E+06 3.49895
2.93978E+06 3.51250
2.94289E+06 3.25000
2.94912E+06 2.93750
2.95458E+06 3.04999
2.96164E+06 3.20000
2.96713E+06 3.27500
2.97186E+06 4.07500
2.97423E+06 4.22500
2.97898E+06 3.91250
2.98294E+06 3.70000
2.98612E+06 3.36250
2.98850E+06 3.12500
2.99170E+06 3.03750
2.99728E+06 3.28750
3.00000E+06 3.36255
3.00770E+06 3.57500
3.01010E+06 3.22500
3.01414E+06 3.26249
3.01897E+06 3.68749
3.02302E+06 3.22500
3.02829E+06 3.28750
3.03533E+06 3.17500
3.04294E+06 3.15000
3.04513E+06 3.60000
3.04731E+06 3.77500
3.04895E+06 3.66250
3.05004E+06 3.31250
3.05442E+06 3.15000
3.05716E+06 3.35000
3.05937E+06 3.81250
3.06156E+06 3.77500
3.06542E+06 3.22500
3.07309E+06 3.22500
3.08223E+06 3.10000
3.08974E+06 3.24999
3.09309E+06 3.23750
3.09729E+06 2.98749
3.10402E+06 2.87500
3.10993E+06 3.35000
3.11330E+06 3.33750
3.11507E+06 3.20000
3.12951E+06 3.16249
3.13635E+06 2.90000
3.14064E+06 3.17500
3.15182E+06 3.47500
3.16217E+06 2.96250
3.16999E+06 3.15000
3.18045E+06 2.86250
3.18482E+06 2.91250
3.18920E+06 3.61250
3.19359E+06 3.61250
3.19976E+06 3.51249
3.21302E+06 3.51250
3.22280E+06 3.11250
3.22726E+06 3.32500
3.23711E+06 3.32500
3.24340E+06 3.13750
3.25152E+06 3.32500
3.26784E+06 3.42499
3.27512E+06 3.15000
3.27787E+06 3.23750
3.28886E+06 3.37500
3.30084E+06 3.50000
3.30732E+06 3.41250
3.31195E+06 3.62499
3.31753E+06 3.41250
3.32218E+06 3.41250
3.32405E+06 3.67500
3.33155E+06 3.75000
3.33623E+06 3.40000
3.33904E+06 3.40000
3.34187E+06 3.58750
3.34847E+06 3.55000
3.35414E+06 3.26249
3.35887E+06 3.26250
3.36362E+06 3.46250
3.36647E+06 3.41250
3.38366E+06 3.38750
3.38847E+06 3.28749
3.39810E+06 3.71250
3.40390E+06 3.43750
3.41359E+06 3.23750
3.41942E+06 3.20000
3.42137E+06 3.06250
3.42577E+06 3.06250
3.43189E+06 3.72500
3.44826E+06 3.37500
3.45651E+06 3.81250
3.47308E+06 3.46250
3.48140E+06 3.38749
3.48307E+06 3.38750
3.49310E+06 3.55000
3.50000E+06 3.55000
3.52178E+06 3.54999
3.52857E+06 3.88750
3.54737E+06 3.63750
3.55596E+06 3.43750
3.56647E+06 3.68749
3.58558E+06 3.49999
3.59781E+06 3.71250
3.61365E+06 3.51250
3.63848E+06 3.40000
3.64742E+06 3.40000
3.67259E+06 3.88750
3.68345E+06 3.48750
3.69437E+06 3.33750
3.70167E+06 3.17500
3.71818E+06 3.35000
3.73480E+06 3.45000
3.75341E+06 3.81250
3.75902E+06 3.58750
3.77406E+06 3.52500
3.79675E+06 3.53750
3.83120E+06 3.46250
3.83891E+06 3.47500
3.85441E+06 3.75000
3.86609E+06 3.66250
3.87980E+06 3.48750
3.89950E+06 3.56251
3.90742E+06 3.56250
3.92135E+06 3.22500
3.93136E+06 3.43750
3.94336E+06 3.46250
4.00000E+06 3.40253
4.00239E+06 3.40000
4.02510E+06 3.33750
4.04176E+06 3.51250
4.05851E+06 3.67500
4.07114E+06 3.52500
4.08385E+06 3.47500
4.11155E+06 3.47500
4.12442E+06 3.60001
4.13952E+06 3.61251
4.15472E+06 3.41251
4.16561E+06 3.38751
4.18314E+06 3.57500
4.20298E+06 3.57500
4.23863E+06 3.62501
4.26566E+06 3.70001
4.28156E+06 3.50001
4.29983E+06 3.26250
4.31363E+06 3.53751
4.32286E+06 3.57500
4.33907E+06 3.77501
4.34601E+06 3.75001
4.35770E+06 3.62501
4.37198E+06 3.63751
4.41458E+06 3.56251
4.43607E+06 3.66251
4.45537E+06 3.82500
4.46990E+06 3.85000
4.48451E+06 3.78751
4.50000E+06 3.73288
4.51641E+06 3.67501
4.53160E+06 3.66480
4.53163E+06 3.66479
4.55364E+06 3.65001
4.63208E+06 3.60001
4.66038E+06 3.70000
4.67851E+06 3.81251
4.68894E+06 3.72500
4.69676E+06 3.47500
4.70988E+06 3.50000
4.72833E+06 3.90001
4.73625E+06 3.87501
4.74690E+06 3.81250
4.77093E+06 3.67500
4.80323E+06 3.65001
4.84680E+06 3.65001
4.86882E+06 3.52501
4.87990E+06 3.47500
4.89101E+06 3.50001
4.90493E+06 3.72500
4.91613E+06 3.68750
4.94709E+06 3.58750
4.96411E+06 3.63751
4.99839E+06 3.81250
5.00000E+06 3.80998
5.00000E+06 3.80997
5.03016E+06 3.76250
5.05051E+06 3.67501
5.08869E+06 3.73751
5.27984E+06 3.77500
5.46288E+06 3.75000
5.50000E+06 3.75340
5.73543E+06 3.77500
6.00000E+06 3.77500
6.02896E+06 3.77500
6.50000E+06 3.71786
6.54425E+06 3.71250
6.96001E+06 3.68750
7.00000E+06 3.68421
7.13290E+06 3.67329
7.13292E+06 3.67329
7.41645E+06 3.65000
7.50000E+06 3.63771
8.00000E+06 3.56426
8.01201E+06 3.56250
8.50000E+06 3.48935
8.76247E+06 3.45000
9.00000E+06 3.42300
9.05800E+06 3.41641
9.05804E+06 3.41640
9.50000E+06 3.36617
9.53232E+06 3.36250
1.00000E+07 3.30062
1.00047E+07 3.29999
1.04740E+07 3.24845
1.05000E+07 3.24561
1.07706E+07 3.21587
1.07710E+07 3.21586
1.08013E+07 3.21253
1.10000E+07 3.17517
1.13190E+07 3.11521
1.13194E+07 3.11513
1.13334E+07 3.11250
1.15000E+07 3.08776
1.20000E+07 3.01350
1.23434E+07 2.96250
1.25000E+07 2.94293
1.30000E+07 2.88043
1.35000E+07 2.81794
1.40000E+07 2.75544
1.42435E+07 2.72500
1.45000E+07 2.70305
1.50000E+07 2.66026
1.55000E+07 2.61746
1.60000E+07 2.57467
1.61422E+07 2.56250
1.65000E+07 2.53945
1.70000E+07 2.50724
1.75000E+07 2.47503
1.78885E+07 2.45000
1.80000E+07 2.44722
1.85000E+07 2.43477
1.90000E+07 2.42231
1.93940E+07 2.41250
1.95000E+07 2.40375
2.00000E+07 2.36250
2.00000E+07 2.43363
2.10000E+07 2.41632
2.12648E+07 2.41047
2.20000E+07 2.40022
2.29622E+07 2.39602
2.30000E+07 2.39586
2.40000E+07 2.39216
2.47814E+07 2.38851
2.50000E+07 2.38760
2.51120E+07 2.38725
2.52180E+07 2.38702
2.60000E+07 2.38980
2.66612E+07 2.39902
2.68422E+07 2.40223
2.70000E+07 2.40518
2.74754E+07 2.41447
2.80000E+07 2.42454
2.90000E+07 2.44250
2.91684E+07 2.44550
3.00000E+07 2.46053
3.02915E+07 2.46598
3.04101E+07 2.46824
3.10000E+07 2.47978
3.14155E+07 2.48812
3.20000E+07 2.49998
3.28502E+07 2.51712
3.30000E+07 2.52009
3.30565E+07 2.52120
3.40000E+07 2.53923
3.40797E+07 2.54069
3.49056E+07 2.55509
3.50000E+07 2.55664
3.50465E+07 2.55740
3.60000E+07 2.57237
3.64925E+07 2.57972
3.69998E+07 2.58708
3.70000E+07 2.58709
3.72354E+07 2.59043
3.80000E+07 2.60106
3.90000E+07 2.61454
3.91226E+07 2.61617
3.94381E+07 2.62034
4.00000E+07 2.62771
4.03089E+07 2.63173
4.10000E+07 2.64050
4.20000E+07 2.65263
4.23547E+07 2.65675
4.30000E+07 2.66398
4.40000E+07 2.67447
4.50000E+07 2.68401
4.50844E+07 2.68476
4.53668E+07 2.68706
4.59419E+07 2.69083
4.60000E+07 2.69115
4.61370E+07 2.69186
4.63186E+07 2.69272
4.70000E+07 2.69513
4.80000E+07 2.69685
4.90000E+07 2.69714
5.00000E+07 2.69671
5.06842E+07 2.69607
5.10000E+07 2.69562
5.18561E+07 2.69393
5.20000E+07 2.69358
5.30000E+07 2.69079
5.40000E+07 2.68742
5.41708E+07 2.68680
5.44969E+07 2.68557
5.50000E+07 2.68361
5.56233E+07 2.68117
5.60000E+07 2.67966
5.61831E+07 2.67889
5.70000E+07 2.67507
5.80000E+07 2.66890
5.85703E+07 2.66435
5.90000E+07 2.66032
5.95384E+07 2.65444
6.00000E+07 2.64859
6.09318E+07 2.63545
6.10000E+07 2.63446
6.20000E+07 2.61934
6.30000E+07 2.60360
6.31931E+07 2.60052
6.40000E+07 2.58755
6.50000E+07 2.57145
6.50865E+07 2.57007
6.60000E+07 2.55559
6.70000E+07 2.54000
6.73643E+07 2.53438
6.77090E+07 2.52910
6.80000E+07 2.52465
6.90000E+07 2.50951
6.92772E+07 2.50534
7.00000E+07 2.49453
7.10000E+07 2.47959
7.20000E+07 2.46461
7.30000E+07 2.44967
7.40000E+07 2.43485
7.50000E+07 2.42019
7.60000E+07 2.40559
7.70000E+07 2.39053
7.80000E+07 2.37451
7.80781E+07 2.37320
7.90000E+07 2.35709
8.00000E+07 2.33788
8.10000E+07 2.31731
8.20000E+07 2.29637
8.30000E+07 2.27554
8.40000E+07 2.25525
8.50000E+07 2.23587
8.60000E+07 2.21737
8.70000E+07 2.19935
8.80000E+07 2.18172
8.90000E+07 2.16436
9.00000E+07 2.14717
9.10000E+07 2.12971
9.20000E+07 2.11186
9.30000E+07 2.09403
9.40000E+07 2.07660
9.50000E+07 2.05989
9.60000E+07 2.04542
9.70000E+07 2.03328
9.80000E+07 2.02180
9.90000E+07 2.00946
1.00000E+08 1.99484
1.02000E+08 1.95909
1.04000E+08 1.91939
1.06000E+08 1.87944
1.08000E+08 1.84227
1.10000E+08 1.81038
1.12000E+08 1.78248
1.14000E+08 1.75568
1.16000E+08 1.72976
1.18000E+08 1.70453
1.20000E+08 1.67981
1.22000E+08 1.65567
1.24000E+08 1.63224
1.26000E+08 1.60947
1.28000E+08 1.58735
1.30000E+08 1.56582
1.32000E+08 1.54460
1.34000E+08 1.52360
1.36000E+08 1.50307
1.38000E+08 1.48323
1.40000E+08 1.46426
1.42000E+08 1.44655
1.44000E+08 1.43015
1.46000E+08 1.41483
1.48000E+08 1.40036
1.50000E+08 1.38654