Cu-63(n,tot) ENDF/B-VII.1
Energy(eV) XS(b)
1.00000E-05 229.912
1.25000E-05 206.178
1.50000E-05 188.658
2.00000E-05 164.067
2.75000E-05 140.668
3.50000E-05 125.268
4.25000E-05 114.151
5.00000E-05 105.640
6.25000E-05 95.0262
7.50000E-05 87.1913
0.000100000 76.1935
0.000125000 68.6882
0.000150000 63.1480
0.000200000 55.3714
0.000275000 47.9720
0.000350000 43.1022
0.000425000 39.5867
0.000500000 36.8954
0.000625000 33.5389
0.000750000 31.0612
0.00100000 27.5834
0.00125000 25.2100
0.00150000 23.4581
0.00200000 20.9989
0.00275000 18.6589
0.00350000 17.1189
0.00425000 16.0072
0.00500000 15.1561
0.00625000 14.0946
0.00750000 13.3111
0.0100000 12.2113
0.0125000 11.4607
0.0150000 10.9066
0.0200000 10.1288
0.0253000 9.57127
0.0253000 9.57127
0.0253001 9.57127
0.0253001 9.57126
0.0253002 9.57126
0.0253004 9.57124
0.0253008 9.57120
0.0253015 9.57114
0.0253030 9.57101
0.0253061 9.57074
0.0253121 9.57021
0.0253241 9.56914
0.0253483 9.56702
0.0253965 9.56277
0.0254930 9.55432
0.0256860 9.53756
0.0260719 9.50460
0.0268438 9.44082
0.0283875 9.32116
0.0314750 9.10882
0.0376500 8.76540
0.0500000 8.28067
0.0625000 7.94483
0.0750000 7.69688
0.100000 7.34874
0.125000 7.11107
0.150000 6.93555
0.200000 6.68902
0.275000 6.45416
0.350000 6.29933
0.500000 6.10146
0.750000 5.91445
1.00000 5.80205
1.50000 5.66959
2.00000 5.58997
2.75000 5.51338
3.50000 5.46223
5.00000 5.39560
7.50000 5.33031
10.0000 5.28921
15.0000 5.23671
20.0000 5.20241
27.5000 5.16684
35.0000 5.14175
50.0000 5.10901
75.0000 5.08372
100.000 5.08042
135.000 5.09940
170.000 5.13715
200.000 5.02010
300.935 4.66394
351.403 4.49016
376.636 4.39918
389.253 4.35191
395.562 4.32877
397.139 4.32394
398.716 4.32152
399.504 4.32353
400.293 4.33418
400.687 4.35041
400.884 4.36625
401.082 4.39363
401.279 4.44619
401.377 4.49229
401.476 4.56488
401.574 4.68809
401.673 4.91795
401.722 5.11259
401.772 5.40453
401.821 5.85532
401.870 6.55180
401.935 7.89394
402.000 8.78563
402.065 7.89406
402.130 6.55155
402.178 5.87060
402.226 5.42476
402.273 5.13241
402.321 4.93548
402.417 4.70012
402.512 4.57253
402.608 4.49649
402.704 4.44774
402.895 4.39124
403.086 4.36089
403.277 4.34262
403.659 4.32228
404.424 4.30456
405.189 4.29598
406.718 4.28565
408.247 4.27788
414.364 4.25081
426.598 4.19684
451.065 4.07656
475.533 3.92863
500.000 3.72893
519.616 3.49445
529.424 3.33109
539.232 3.11591
544.136 2.98089
549.039 2.82264
553.943 2.63995
558.847 2.44558
561.299 2.36240
563.751 2.32061
566.203 2.38949
568.655 2.75701
569.881 3.20296
571.107 4.02094
571.720 4.66749
572.333 5.56592
572.946 6.83620
573.559 8.67311
574.172 11.4094
574.785 15.6436
575.398 22.5339
576.011 34.5356
576.318 44.0306
576.624 57.5294
576.931 77.4413
577.237 108.180
577.544 158.386
577.850 246.265
578.157 412.553
578.310 549.968
578.463 743.680
578.732 1231.32
579.000 1592.84
579.269 1318.94
579.538 853.370
579.813 539.030
580.087 360.661
580.362 256.554
580.636 192.130
580.911 149.884
581.185 120.816
581.734 84.5302
582.283 63.5526
582.832 50.2897
583.931 34.9655
585.029 26.6772
586.127 21.6256
587.225 18.2837
588.323 15.9371
590.519 12.9009
592.715 11.0497
594.912 9.81690
597.108 8.94307
601.500 7.79458
605.893 7.07784
610.285 6.58942
614.677 6.23529
623.462 5.75458
632.247 5.43982
636.639 5.31837
641.032 5.21520
643.228 5.17395
644.326 5.16002
645.424 5.15759
646.522 5.18573
647.071 5.22938
647.620 5.32253
648.169 5.53781
648.444 5.75413
648.718 6.13714
648.993 6.89156
649.130 7.56566
649.268 8.64175
649.405 10.4919
649.542 13.9891
649.611 16.9777
649.679 21.4792
649.748 28.4692
649.817 39.3733
649.908 61.1032
650.000 76.5510
650.092 63.4018
650.184 42.2415
650.260 30.1764
650.336 22.6521
650.413 17.9071
650.489 14.8095
650.642 11.2057
650.795 9.29525
650.948 8.16777
651.101 7.44736
651.407 6.61080
651.713 6.15859
652.018 5.88409
652.630 5.57666
653.242 5.41285
653.853 5.31211
655.076 5.19380
656.299 5.12423
657.523 5.07616
659.969 5.00910
664.862 4.91996
669.754 4.85366
679.539 4.74948
689.325 4.66595
708.895 4.53381
728.466 4.42983
767.607 4.26647
787.178 4.19420
792.070 4.17512
796.963 4.15446
799.409 4.14371
800.633 4.13892
801.856 4.13606
803.079 4.13990
803.690 4.14917
804.302 4.17159
804.914 4.22769
805.219 4.28621
805.525 4.39148
805.831 4.59947
805.984 4.78372
806.137 5.07333
806.290 5.55659
806.443 6.42562
806.595 8.13108
806.672 9.58691
806.748 11.6935
806.874 16.7692
807.000 20.6112
807.126 17.8698
807.252 13.0689
807.343 10.5746
807.434 8.89422
807.526 7.76484
807.617 6.98815
807.799 6.03361
807.981 5.49830
808.163 5.16935
808.345 4.95283
808.709 4.69303
809.074 4.54749
809.438 4.45678
810.166 4.35226
810.895 4.29497
811.623 4.25912
813.080 4.21656
814.537 4.19159
815.994 4.17458
818.908 4.15146
824.736 4.12181
830.564 4.09981
853.875 4.03089
900.498 3.91556
947.121 3.80632
958.776 3.77660
970.432 3.74216
976.260 3.72070
979.174 3.70787
982.088 3.69289
985.002 3.67535
986.459 3.66615
987.916 3.65878
988.644 3.65764
989.373 3.66094
990.101 3.67406
990.830 3.71049
991.558 3.80997
991.922 3.91920
992.287 4.12313
992.651 4.54363
992.833 4.92958
993.015 5.55603
993.197 6.64541
993.379 8.71916
993.470 10.4888
993.561 13.1435
993.653 17.2391
993.744 23.5640
993.808 29.7413
993.872 37.0235
994.000 47.2833
994.129 40.1211
994.257 27.4483
994.347 21.0210
994.436 16.6314
994.526 13.6417
994.616 11.5616
994.795 8.97744
994.975 7.51332
995.154 6.60711
995.334 6.00769
995.693 5.28513
996.051 4.87921
996.410 4.62599
997.128 4.33509
997.846 4.17704
998.564 4.07954
999.281 4.01400
999.999 3.96713
1000.00 3.96702
1000.01 3.96657
1000.02 3.96613
1000.03 3.96530
1000.06 3.96359
1000.12 3.96031
1000.25 3.95396
1000.49 3.94211
1000.98 3.92131
1001.96 3.88840
1003.91 3.84394
1005.86 3.81485
1007.81 3.79391
1011.72 3.76471
1015.63 3.74416
1023.44 3.71441
1031.25 3.69148
1062.50 3.62035
1125.00 3.50150
1250.00 3.28366
1375.00 3.07781
1500.00 2.89448
1625.00 2.79811
1687.50 2.85467
1750.00 3.10814
1812.50 3.87352
1843.75 4.71715
1875.00 6.25575
1906.25 9.27786
1921.88 11.9104
1937.50 15.9649
1953.13 22.5442
1968.75 33.9762
1984.38 55.7203
1992.19 74.2675
2000.00 102.161
2008.20 148.031
2016.40 221.239
2027.20 370.101
2038.00 489.202
2048.80 414.280
2059.60 271.696
2068.66 187.161
2077.71 133.703
2086.76 99.7463
2095.82 77.3826
2113.93 51.1173
2132.03 36.9911
2150.14 28.5322
2168.25 23.0491
2204.47 16.5506
2240.69 12.9336
2276.90 10.6699
2313.12 9.12705
2349.34 8.00182
2421.77 6.41719
2457.99 5.79373
2494.20 5.20601
2530.42 4.59638
2548.53 4.26239
2566.64 3.90206
2575.69 3.71777
2584.75 3.54622
2593.80 3.42571
2602.85 3.46687
2607.38 3.63873
2611.91 4.03126
2616.44 4.85860
2620.96 6.61515
2623.23 8.18564
2625.49 10.6099
2627.75 14.5030
2630.02 21.0840
2632.28 33.0369
2633.41 42.7884
2634.54 56.9319
2635.68 78.1882
2636.81 111.298
2637.94 164.614
2639.07 251.266
2640.54 427.605
2642.00 573.051
2643.47 491.955
2644.93 327.923
2646.24 223.897
2647.55 159.457
2648.86 119.180
2650.17 92.9368
2652.79 62.3538
2655.41 45.9743
2658.03 36.1527
2660.65 29.7682
2665.89 22.1590
2671.13 17.8946
2676.38 15.2195
2681.62 13.4048
2686.86 12.1017
2697.34 10.3646
2707.82 9.26405
2718.30 8.50410
2728.78 7.94636
2749.75 7.17658
2770.71 6.66308
2812.63 6.00172
2854.56 5.57624
2896.49 5.26730
2980.34 4.82710
3064.19 4.51049
3148.04 4.25953
3231.89 4.04645
3273.82 3.94529
3284.30 3.91822
3294.78 3.88762
3300.02 3.86896
3305.26 3.84466
3307.88 3.82822
3310.50 3.80750
3311.81 3.79769
3313.12 3.80237
3313.78 3.83281
3314.10 3.87210
3314.43 3.95054
3314.76 4.12030
3314.92 4.27926
3315.09 4.53680
3315.25 4.98545
3315.41 5.82618
3315.58 7.55655
3315.66 9.09377
3315.74 11.3548
3315.87 16.8228
3316.00 21.2292
3316.13 18.6966
3316.26 13.7447
3316.35 11.0832
3316.45 9.26734
3316.54 8.03453
3316.64 7.17832
3316.82 6.11481
3317.01 5.50957
3317.20 5.13281
3317.39 4.88157
3317.76 4.57527
3318.14 4.40028
3318.52 4.28929
3319.27 4.15891
3320.77 4.03966
3322.27 3.98432
3325.28 3.93037
3328.29 3.90218
3334.30 3.86921
3340.32 3.84720
3352.35 3.81359
3364.38 3.78513
3412.50 3.68511
3460.62 3.59022
3472.65 3.56532
3484.68 3.53788
3490.69 3.52169
3496.71 3.50124
3499.72 3.48761
3502.72 3.46986
3504.23 3.45998
3505.73 3.45685
3506.48 3.47119
3507.23 3.53932
3507.61 3.64508
3507.99 3.92031
3508.17 4.23020
3508.36 4.83861
3508.46 5.36882
3508.55 6.17786
3508.64 7.44587
3508.74 9.41637
3508.87 13.7379
3509.00 17.2284
3509.13 15.2273
3509.26 11.3113
3509.42 8.29140
3509.57 6.66490
3509.72 5.74533
3509.87 5.18604
3510.17 4.57287
3510.47 4.26041
3511.08 3.96052
3511.68 3.82220
3512.89 3.69569
3514.10 3.63775
3516.52 3.58289
3518.94 3.55554
3523.77 3.52558
3528.61 3.50704
3538.28 3.48061
3547.95 3.45929
3586.64 3.38664
3664.01 3.25406
3741.38 3.12465
3780.06 3.05918
3799.41 3.02496
3809.08 3.00575
3813.91 2.99414
3816.33 2.99135
3817.54 3.01485
3818.15 3.10634
3818.45 3.29963
3818.60 3.54954
3818.75 4.08080
3818.88 4.86515
3819.00 5.49153
3819.13 5.12328
3819.25 4.41127
3819.39 3.88173
3819.53 3.58649
3819.80 3.31236
3820.35 3.13647
3821.45 3.05118
3823.65 3.01301
3828.06 2.99156
3836.86 2.97065
3854.47 2.93787
3889.69 2.87559
3960.12 2.74833
4100.99 2.46080
4171.43 2.28361
4206.65 2.17895
4241.86 2.05713
4277.08 1.90938
4294.69 1.82180
4312.30 1.72306
4329.91 1.61517
4338.71 1.56242
4347.52 1.51944
4356.32 1.50669
4365.13 1.58198
4369.53 1.70081
4373.93 1.94172
4378.33 2.45899
4379.43 2.68922
4380.53 3.03140
4381.08 3.30272
4381.63 3.76209
4381.91 4.16997
4382.18 4.88899
4382.32 5.50033
4382.46 6.44253
4382.60 8.01381
4382.73 10.6745
4382.87 14.4223
4383.00 16.3507
4383.13 13.0156
4383.27 8.90092
4383.39 6.61717
4383.51 5.37850
4383.64 4.69813
4383.76 4.31209
4384.00 3.95883
4384.25 3.85255
4384.74 3.89867
4385.23 4.07210
4387.20 5.20978
4389.17 7.01274
4391.14 9.93139
4393.11 14.9677
4395.07 24.4026
4396.06 32.3004
4397.04 43.9441
4398.03 61.4905
4399.01 88.0300
4402.00 203.728
4403.50 177.653
4404.99 118.850
4406.23 83.1479
4407.48 60.2306
4408.72 45.5158
4409.96 35.7450
4412.44 24.1633
4414.93 17.8660
4417.41 14.0597
4419.90 11.5739
4424.86 8.59981
4429.83 6.92601
4434.80 5.86870
4437.29 5.47383
4439.77 5.14067
4441.01 4.99751
4442.25 4.88863
4442.87 4.87599
4443.50 4.97403
4443.81 5.15485
4444.12 5.61484
4444.27 6.10874
4444.43 7.00832
4444.58 8.78830
4444.74 12.5147
4444.87 18.0822
4445.00 22.4843
4445.13 19.7445
4445.26 14.6081
4445.36 11.7443
4445.47 9.84408
4445.57 8.58346
4445.67 7.72988
4445.87 6.67367
4446.07 6.08080
4446.47 5.45966
4446.87 5.14665
4447.68 4.82619
4448.49 4.65170
4450.10 4.43770
4451.71 4.28942
4454.93 4.06504
4458.15 3.88760
4471.04 3.39331
4483.93 3.07562
4496.81 2.84752
4522.59 2.52846
4548.37 2.30033
4599.92 1.95006
4651.47 1.63929
4703.02 1.31483
4728.79 1.14266
4754.57 0.977802
4780.35 0.885777
4793.23 0.941440
4806.12 1.19811
4812.56 1.48801
4819.01 1.98902
4825.45 2.86916
4831.90 4.47785
4838.34 7.62158
4841.56 10.3274
4844.78 14.4230
4848.01 20.8715
4851.23 31.4938
4854.45 49.8031
4857.67 82.0628
4861.34 142.866
4865.00 196.466
4868.67 172.719
4872.34 116.978
4876.33 74.8652
4880.32 51.0297
4884.31 37.1745
4888.30 28.5916
4892.29 22.9357
4896.28 19.0133
4904.26 14.0472
4912.23 11.1096
4920.21 9.20530
4936.17 6.92313
4952.13 5.62081
4968.09 4.78244
5000.00 3.75936
5032.59 3.13402
5065.19 2.70747
5130.37 2.16165
5162.97 2.00914
5195.56 1.96851
5228.15 2.13437
5244.45 2.36545
5252.60 2.55260
5256.67 2.69999
5257.69 2.76241
5258.71 2.86918
5259.22 2.97101
5259.73 3.17470
5259.98 3.37793
5260.24 3.75969
5260.49 4.62760
5260.62 5.51152
5260.74 7.01918
5260.87 9.25076
5261.00 10.4766
5261.13 8.61449
5261.26 6.21109
5261.37 4.91793
5261.47 4.15863
5261.69 3.42587
5261.91 3.12300
5262.13 2.97944
5262.56 2.86440
5263.00 2.83017
5263.87 2.82777
5264.74 2.85040
5268.23 2.98182
5275.19 3.29756
5289.13 4.17790
5303.07 5.58764
5317.00 7.93211
5330.94 12.0405
5344.88 19.7905
5351.84 26.3080
5358.81 35.9952
5365.78 50.9111
5369.26 61.3956
5371.01 67.7042
5371.88 71.2406
5372.31 73.2021
5372.53 74.2968
5372.75 75.5110
5373.00 76.3974
5373.25 76.5862
5373.52 77.6738
5373.78 78.9274
5374.31 81.4906
5375.36 86.8181
5377.48 98.6230
5381.70 127.968
5390.85 220.984
5400.00 304.425
5404.58 301.498
5409.15 268.259
5418.30 180.548
5424.67 133.970
5431.04 101.571
5437.42 79.2741
5443.79 63.6469
5456.53 44.0651
5469.27 32.8310
5482.02 25.7975
5494.76 21.0832
5520.24 15.2896
5545.73 11.9284
5571.21 9.74665
5622.19 7.03186
5673.16 5.25356
5698.64 4.48081
5724.13 3.69663
5749.61 2.83039
5762.36 2.34813
5775.10 1.84802
5787.84 1.44320
5794.21 1.41586
5797.40 1.51727
5800.59 1.75943
5803.77 2.23314
5806.96 3.09914
5810.14 4.65737
5813.33 7.50281
5816.51 12.9174
5818.11 17.4045
5819.70 23.9142
5821.29 33.5939
5822.89 48.3293
5824.48 71.1964
5826.07 106.668
5828.54 193.599
5831.00 271.494
5833.47 242.488
5835.93 169.342
5837.91 124.699
5839.89 94.6474
5841.87 74.5100
5843.85 60.6369
5847.81 43.4655
5851.77 33.6522
5855.73 27.4800
5859.69 23.3093
5867.61 18.1179
5875.53 15.0607
5883.45 13.0646
5899.29 10.6267
5915.13 9.19240
5930.97 8.24174
5962.64 7.04170
5994.32 6.29661
6026.00 5.77510
6089.36 5.06706
6152.71 4.58584
6216.07 4.22171
6342.78 3.67591
6596.21 2.89059
6722.92 2.54690
6786.28 2.36515
6802.12 2.31312
6817.96 2.25156
6825.88 2.21222
6833.80 2.15859
6837.76 2.12077
6841.72 2.07073
6843.70 2.04465
6845.68 2.04754
6846.67 2.10997
6847.16 2.19490
6847.66 2.36955
6848.15 2.75532
6848.40 3.12355
6848.65 3.73081
6848.90 4.80720
6849.14 6.86562
6849.27 8.63056
6849.39 11.2522
6849.51 15.3059
6849.64 21.4956
6849.82 35.6147
6850.00 47.5144
6850.18 41.3941
6850.36 28.3746
6850.48 21.8824
6850.60 17.2720
6850.84 11.7215
6851.08 8.77148
6851.31 7.05494
6851.55 5.96404
6851.79 5.23207
6852.26 4.32961
6852.74 3.81078
6853.21 3.48103
6854.16 3.09394
6855.12 2.87812
6856.07 2.74238
6857.97 2.58207
6859.87 2.49045
6861.77 2.43070
6865.57 2.35572
6869.37 2.30859
6873.17 2.27458
6880.77 2.22524
6895.97 2.15589
6911.17 2.10012
6971.99 1.90180
7002.39 1.79871
7032.80 1.68049
7048.00 1.60707
7055.60 1.56238
7063.20 1.50782
7070.80 1.43534
7074.60 1.38723
7078.40 1.32582
7082.21 1.24410
7084.11 1.19348
7086.01 1.13833
7087.91 1.09492
7088.86 1.09898
7089.81 1.16207
7090.76 1.39748
7091.23 1.68316
7091.71 2.23940
7091.94 2.71172
7092.18 3.41040
7092.42 4.48987
7092.66 6.21887
7092.89 9.17679
7093.01 11.4560
7093.13 14.5711
7093.25 18.9989
7093.37 25.3871
7093.49 34.7600
7093.61 48.3763
7093.80 82.8410
7094.00 112.920
7094.10 111.238
7094.20 98.7196
7094.39 66.4840
7094.62 41.2233
7094.85 27.5587
7095.08 19.8903
7095.31 15.2560
7095.53 12.2588
7095.76 10.2092
7096.22 7.65900
7096.67 6.17278
7097.13 5.22320
7098.04 4.10659
7098.95 3.48443
7099.86 3.09476
7100.78 2.82956
7101.69 2.63867
7103.51 2.38277
7105.33 2.21942
7107.16 2.10586
7108.98 2.02200
7112.62 1.90514
7116.27 1.82612
7123.56 1.72180
7130.85 1.65160
7138.14 1.59767
7152.72 1.51312
7211.05 1.26209
7269.38 1.03157
7327.71 0.790113
7386.04 0.533015
7415.20 0.405184
7444.36 0.297095
7458.95 0.265813
7473.53 0.270886
7480.82 0.297817
7488.11 0.351358
7495.40 0.444798
7502.69 0.599653
7509.98 0.852184
7517.27 1.26655
7524.57 1.96327
7531.86 3.18639
7539.15 5.47950
7542.79 7.39136
7546.44 10.2106
7550.08 14.5196
7553.73 21.3678
7557.38 32.6856
7561.02 51.7374
7570.00 126.602
7572.25 126.570
7574.49 113.381
7578.98 76.6656
7584.18 47.1236
7589.38 31.0867
7594.57 22.0963
7599.77 16.6712
7604.97 13.1669
7610.16 10.7742
7620.56 7.79979
7630.95 6.08162
7641.35 4.99740
7662.14 3.77149
7682.92 3.17987
7703.71 2.93965
7745.29 3.24852
7766.08 3.85857
7786.87 4.93237
7807.66 6.73537
7828.45 9.77319
7849.23 15.0545
7870.02 24.7204
7880.42 32.5223
7890.81 43.5833
7901.21 59.4444
7911.60 82.1396
7930.80 146.364
7950.00 206.648
7959.60 206.948
7969.20 186.309
7988.40 128.587
8000.13 100.402
8011.85 79.5356
8035.31 53.1733
8058.76 38.4284
8082.22 29.4930
8105.67 23.6716
8129.12 19.6477
8176.03 14.5271
8222.94 11.4252
8269.85 9.30797
8293.30 8.45603
8305.03 8.06690
8316.75 7.70800
8328.48 7.41549
8334.34 7.33573
8340.21 7.37437
8346.07 7.71470
8349.00 8.15316
8351.93 8.98976
8354.87 10.6580
8357.80 14.2871
8359.26 17.7246
8360.73 23.3712
8362.20 33.0746
8363.66 50.1637
8367.00 114.076
8368.67 103.106
8370.34 71.9547
8371.42 56.1645
8372.49 44.8037
8374.64 30.9893
8376.79 23.5772
8378.95 19.2168
8381.10 16.4378
8383.25 14.5494
8387.55 12.1930
8391.85 10.8035
8396.15 9.89252
8404.76 8.76383
8413.36 8.07564
8421.97 7.59585
8439.17 6.93430
8456.38 6.46527
8473.59 6.09205
8508.01 5.49439
8576.84 4.55963
8611.25 4.11190
8619.86 3.97932
8628.46 3.81345
8632.76 3.70057
8634.92 3.62831
8637.07 3.53766
8639.22 3.41666
8640.29 3.33862
8641.37 3.24518
8642.44 3.13911
8642.98 3.09102
8643.52 3.06936
8644.06 3.14061
8644.33 3.27197
8644.60 3.55767
8644.86 4.18176
8645.13 5.63345
8645.27 7.06135
8645.40 9.42475
8645.54 13.5022
8645.60 16.5807
8645.67 20.6367
8645.75 27.2866
8645.84 35.4705
8646.00 49.3549
8646.08 49.4785
8646.17 45.0276
8646.33 32.5274
8646.49 23.5051
8646.65 17.9302
8646.81 14.4346
8646.97 12.1418
8647.13 10.5645
8647.29 9.43247
8647.60 7.94494
8647.92 7.02978
8648.24 6.41900
8648.88 5.66469
8649.51 5.22126
8650.15 4.93007
8651.42 4.56838
8652.69 4.34701
8653.96 4.19155
8656.51 3.96791
8659.05 3.78282
8661.60 3.58079
8662.87 3.45705
8664.14 3.32603
8664.78 3.29893
8665.10 3.33229
8665.41 3.45170
8665.73 3.77974
8666.05 4.68003
8666.21 5.66663
8666.37 7.47575
8666.53 10.9849
8666.61 13.9257
8666.69 18.0346
8666.76 23.6503
8666.84 30.6647
8667.00 42.4636
8667.08 42.6235
8667.16 38.8550
8667.32 28.3411
8667.44 21.7616
8667.57 17.3407
8667.69 14.3636
8667.82 12.3048
8668.07 9.74600
8668.32 8.27675
8668.58 7.34905
8668.83 6.72008
8669.33 5.93387
8670.34 5.16279
8671.35 4.78793
8672.36 4.56522
8673.37 4.41635
8675.38 4.22533
8677.40 4.10356
8679.42 4.01566
8683.45 3.89015
8691.52 3.72341
8699.58 3.60025
8731.85 3.22698
8796.39 2.60162
8860.93 1.98976
8925.46 1.34999
8990.00 0.695150
9022.27 0.414127
9038.40 0.317701
9054.54 0.282544
9062.61 0.301516
9070.67 0.356011
9078.74 0.458271
9086.81 0.625252
9094.87 0.880775
9102.94 1.25885
9111.01 1.80891
9119.07 2.60430
9127.14 3.75639
9135.21 5.43851
9143.28 7.92816
9151.34 11.6826
9159.41 17.4763
9167.48 26.6478
9175.54 41.4917
9183.61 65.5953
9195.31 123.013
9207.00 177.659
9218.70 162.588
9230.39 115.442
9238.83 88.3663
9247.26 69.1167
9255.69 55.6071
9264.13 45.9567
9281.00 33.5523
9297.86 26.1954
9314.73 21.4492
9331.60 18.1823
9365.34 14.0372
9399.08 11.5510
9432.81 9.91164
9500.29 7.93036
9567.76 6.90486
9635.23 6.63573
9668.97 6.91952
9702.71 7.80047
9719.58 8.72817
9736.44 10.4825
9744.88 12.1009
9753.31 15.0381
9757.53 17.6617
9761.75 22.1393
9763.86 25.7755
9765.96 31.2121
9768.07 39.9228
9770.18 54.8356
9772.09 77.1460
9774.00 100.667
9774.96 100.177
9775.91 85.8901
9777.82 45.2603
9778.67 32.4545
9779.51 23.4989
9780.36 17.4116
9781.21 13.3028
9782.90 8.61400
9784.59 6.42953
9786.29 5.43151
9787.98 5.03011
9791.37 5.02846
9794.76 5.45027
9798.14 6.01331
9804.92 7.25905
9818.46 9.93478
9832.01 13.0674
9859.11 22.4856
9886.20 40.4336
9913.10 71.9851
9940.00 102.113
9966.90 93.6970
9993.80 66.6271
10014.9 49.8839
10036.0 38.4060
10057.2 30.6203
10078.3 25.2073
10120.5 18.4201
10162.7 14.4611
10205.0 11.9013
10247.2 10.1039
10289.4 8.73766
10310.6 8.12248
10315.8 7.95532
10321.1 7.76085
10323.8 7.63991
10326.4 7.48685
10327.7 7.39649
10329.0 7.32830
10329.7 7.36480
10330.4 7.64472
10330.7 8.09395
10331.0 9.20604
10331.2 10.4076
10331.3 12.4085
10331.5 16.0848
10331.7 23.0553
10331.8 36.0446
10332.0 48.1086
10332.2 43.7443
10332.3 32.3576
10332.5 26.1755
10332.6 22.1467
10332.7 19.0482
10332.8 17.0156
10333.0 14.2627
10333.3 12.6351
10333.7 10.8775
10334.2 9.99597
10335.1 9.11611
10336.0 8.68914
10337.8 8.26598
10339.6 8.04849
10343.3 7.80161
10346.9 7.64480
10354.2 7.41684
10361.5 7.23317
10390.7 6.63030
10449.0 5.64010
10507.4 4.78005
10536.6 4.37897
10551.2 4.18329
10558.5 4.08504
10562.1 4.03719
10563.9 4.03196
10564.8 4.10380
10565.3 4.32270
10565.5 4.69504
10565.7 5.74366
10566.0 7.90834
10566.3 6.16995
10566.4 5.24553
10566.6 4.76817
10566.9 4.37859
10567.6 4.14589
10568.9 4.02937
10571.5 3.95668
10576.8 3.87546
10587.4 3.74088
10608.5 3.49800
10629.6 3.29024
10640.2 3.20726
10645.5 3.17892
10648.1 3.19107
10649.4 3.27582
10650.1 3.51453
10650.4 3.96789
10650.6 4.55789
10650.7 5.72700
10650.9 7.29843
10651.0 8.39252
10651.1 7.36757
10651.3 5.79687
10651.4 4.65970
10651.6 4.05338
10651.9 3.56526
10652.5 3.29040
10653.7 3.17564
10656.2 3.12960
10661.2 3.10309
10671.1 3.09163
10691.0 3.20822
10710.9 3.63116
10730.7 4.65270
10750.6 6.92703
10760.5 8.96653
10770.5 12.0623
10780.4 16.8608
10790.3 24.4462
10800.3 36.6725
10810.2 56.4000
10825.1 105.331
10840.0 153.047
10854.9 141.807
10869.8 102.427
10882.6 75.8513
10895.5 58.1210
10908.3 46.3599
10921.2 38.3093
10946.8 28.3734
10972.5 22.6782
10998.2 19.0635
11023.9 16.5930
11075.2 13.4581
11126.6 11.5556
11177.9 10.2730
11280.6 8.62958
11383.3 7.59164
11486.0 6.85029
11691.5 5.79585
11896.9 4.99505
12102.3 4.25612
12205.0 3.85651
12307.7 3.38261
12359.1 3.08565
12384.7 2.91056
12410.4 2.71141
12436.1 2.48936
12448.9 2.38085
12461.8 2.30292
12474.6 2.34225
12481.0 2.48760
12487.4 2.84181
12493.9 3.66826
12497.1 4.44919
12500.3 5.70068
12503.5 7.77980
12506.7 11.3934
12509.9 17.9915
12513.1 30.3653
12520.0 77.9913
12521.7 79.3631
12523.5 72.5802
12526.9 51.5268
12529.9 37.2775
12532.9 27.9974
12535.9 21.9934
12538.9 17.9852
12544.9 13.1542
12550.9 10.4642
12556.9 8.79637
12562.9 7.67709
12574.8 6.28459
12586.8 5.45508
12598.8 4.90176
12622.8 4.19224
12646.7 3.73363
12670.7 3.39193
12718.6 2.86548
12766.6 2.42390
12814.5 2.00564
12838.5 1.79586
12862.4 1.58115
12874.4 1.46974
12886.4 1.35522
12892.4 1.30126
12898.4 1.27447
12901.4 1.31189
12904.4 1.51329
12905.9 1.83921
12906.6 2.16657
12907.4 2.73954
12908.1 3.83751
12908.5 4.80130
12908.9 6.24449
12909.2 8.65574
12909.6 12.7381
12910.0 20.3550
12910.2 26.8112
12910.3 35.4615
12911.0 81.7910
12911.2 81.2721
12911.3 72.4336
12911.7 47.8523
12911.9 34.4233
12912.1 25.4130
12912.4 19.4308
12912.6 15.3668
12913.1 10.4589
12913.6 7.80133
12914.1 6.15048
12914.5 5.07657
12915.5 3.81443
12916.4 3.10797
12917.4 2.67572
12919.3 2.18027
12921.2 1.90861
12923.1 1.73901
12926.9 1.53769
12930.7 1.41827
12934.6 1.33629
12942.2 1.22350
12957.4 1.07016
12961.2 1.03029
12965.1 0.977546
12967.0 0.939884
12968.9 0.890343
12969.8 0.865619
12970.8 0.873631
12971.3 0.938865
12971.7 1.16850
12972.0 1.47226
12972.2 2.12503
12972.4 3.68948
12972.6 5.26274
12972.7 7.69540
12972.8 13.4641
12973.0 18.6422
12973.1 18.7094
12973.2 17.0393
12973.3 12.0950
12973.5 7.85952
12973.7 5.62186
12973.9 4.31013
12974.1 3.55547
12974.6 2.70112
12975.0 2.26114
12975.8 1.83073
12976.6 1.62810
12978.2 1.43626
12979.9 1.34763
12983.1 1.26833
12986.4 1.23801
12999.4 1.26604
13012.5 1.42667
13025.5 1.73130
13038.6 2.23963
13051.6 3.05543
13064.7 4.36278
13071.2 5.32963
13072.8 5.63925
13074.5 6.01978
13076.1 6.64116
13076.9 7.43381
13077.3 8.52298
13077.5 9.68818
13077.7 12.0397
13077.9 14.1587
13078.0 14.6738
13078.1 11.5813
13078.3 8.80047
13078.5 6.88019
13078.7 6.36409
13079.1 6.21503
13080.0 6.42466
13081.7 6.90334
13085.1 7.80551
13091.9 9.82547
13105.5 15.7037
13119.2 25.7371
13132.8 42.9814
13151.4 83.4199
13170.0 123.963
13188.6 116.584
13207.2 85.2785
13222.8 64.2219
13238.3 49.8155
13253.9 40.0611
13269.4 33.2765
13300.5 24.7596
13331.6 19.7889
13362.7 16.5919
13393.8 14.3792
13456.0 11.5152
13518.2 9.71307
13549.3 9.03305
13580.4 8.46934
13611.5 8.06183
13627.1 7.97375
13642.6 8.06003
13658.2 8.53695
13673.7 10.0373
13681.5 11.7262
13689.3 14.8301
13697.0 20.8536
13704.8 32.9700
13720.0 77.2788
13727.6 72.6427
13735.2 53.0217
13740.6 41.7612
13745.9 33.7556
13751.3 28.1624
13756.7 24.1955
13767.4 19.1224
13778.1 16.1367
13788.9 14.2137
13799.6 12.8893
13821.1 11.1938
13842.5 10.1526
13864.0 9.44159
13906.9 8.50956
13949.9 7.89906
13992.8 7.44213
14035.7 7.04421
14046.5 6.93368
14057.2 6.79393
14062.6 6.69391
14067.9 6.53698
14070.6 6.40579
14073.3 6.18618
14074.6 6.00560
14076.0 5.73317
14076.6 5.55522
14077.3 5.40773
14077.7 5.45275
14078.0 5.84066
14078.2 6.40874
14078.3 7.59068
14078.5 10.1088
14078.7 15.2799
14078.7 19.8052
14078.8 26.0263
14079.0 37.1398
14079.2 36.3807
14079.3 28.5655
14079.5 21.9862
14079.7 17.7607
14079.9 15.1448
14080.1 13.4390
14080.5 11.4203
14080.9 10.3232
14081.6 9.13877
14082.4 8.54527
14083.9 7.94762
14085.4 7.65118
14086.9 7.47098
14088.4 7.34997
14091.4 7.19323
14094.4 7.09326
14097.4 7.02139
14103.4 6.91958
14109.5 6.84565
14115.5 6.78602
14127.5 6.68867
14151.6 6.53360
14175.7 6.40243
14272.0 5.97048
14368.4 5.59853
14416.6 5.41148
14440.7 5.30665
14452.7 5.23854
14458.7 5.17997
14461.7 5.11550
14463.2 5.05210
14464.0 5.04880
14464.4 5.20929
14464.6 5.54788
14464.7 6.56171
14464.9 8.13910
14465.0 9.81560
14465.1 9.66831
14465.3 8.48068
14465.5 7.12239
14465.7 6.47863
14466.1 5.91360
14466.9 5.56143
14468.5 5.37600
14471.8 5.27549
14478.3 5.20443
14491.4 5.12158
14517.5 4.96685
14530.6 4.87715
14543.6 4.77160
14556.7 4.64313
14563.2 4.56938
14566.5 4.53223
14568.1 4.51938
14568.9 4.53080
14569.3 4.57442
14569.7 4.82674
14570.0 5.20566
14570.3 4.86991
14570.7 4.58677
14571.1 4.52550
14572.0 4.48906
14573.7 4.46233
14577.1 4.43851
14580.5 4.45089
14583.9 4.54479
14587.3 4.85118
14589.0 5.19289
14590.7 5.80214
14592.4 6.95617
14594.1 9.28078
14595.0 11.3617
14595.8 14.5232
14596.7 19.4988
14597.5 27.4097
14600.0 65.9328
14600.6 67.3166
14601.2 61.8543
14602.5 44.5611
14603.4 34.1634
14604.3 27.0238
14605.2 22.1403
14606.1 18.7345
14608.0 14.4656
14609.8 12.0333
14611.6 10.4978
14613.4 9.46980
14617.1 8.19701
14620.7 7.45217
14624.4 6.97116
14631.6 6.38849
14638.9 6.04892
14646.2 5.82471
14660.8 5.54042
14675.4 5.35977
14690.0 5.22833
14719.1 5.03496
14777.5 4.75262
14835.8 4.50680
14894.1 4.25680
14923.3 4.12726
14952.5 4.00341
14981.6 3.92249
14996.2 3.93793
15010.8 4.05737
15025.4 4.43528
15032.7 4.84338
15039.9 5.55759
15047.2 6.86451
15054.5 9.42538
15061.8 14.9319
15065.5 20.0207
15069.1 27.8987
15080.0 67.3205
15082.7 68.9397
15085.5 63.2595
15090.9 44.4731
15095.0 33.0219
15099.2 25.2003
15103.3 19.9113
15107.4 16.2586
15115.7 11.6611
15123.9 8.88294
15132.2 6.89771
15136.3 6.03811
15140.4 5.22446
15144.5 4.47467
15146.6 4.17861
15148.7 4.03449
15150.7 4.26789
15152.8 5.48845
15153.8 6.94235
15154.8 9.52933
15155.9 14.1038
15156.9 22.0548
15158.5 43.2192
15159.2 55.9649
15160.0 64.8224
15161.6 62.4065
15163.1 48.2896
15164.3 38.8083
15165.6 31.9895
15166.8 27.1575
15168.1 23.6641
15170.5 19.0797
15173.0 16.2712
15175.5 14.3979
15178.0 13.0656
15182.9 11.2978
15187.9 10.1729
15192.9 9.38823
15202.8 8.35157
15212.7 7.68495
15222.6 7.21196
15242.5 6.57177
15262.3 6.14693
15282.1 5.83697
15321.8 5.39984
15401.2 4.84537
15480.5 4.44449
15559.9 4.07503
15599.5 3.87986
15639.2 3.66771
15678.9 3.43791
15698.7 3.32668
15718.6 3.24527
15738.4 3.27463
15748.3 3.40553
15758.2 3.72509
15768.2 4.45931
15778.1 6.20733
15783.0 7.93216
15788.0 10.8180
15793.0 15.8253
15797.9 24.6595
15810.0 63.3490
15813.0 65.0608
15816.1 60.1102
15822.1 43.5896
15827.0 32.7673
15831.9 25.4281
15836.8 20.5111
15839.3 18.6533
15840.5 17.8382
15841.1 17.5026
15841.4 17.4580
15841.7 17.9921
15842.0 19.5342
15842.3 18.5889
15842.6 17.3951
15843.0 16.9052
15843.7 16.3447
15845.1 15.5708
15847.9 14.3410
15853.6 12.4803
15864.9 10.0867
15876.2 8.63380
15887.5 7.66584
15898.8 6.97081
15910.1 6.43741
15921.4 5.98140
15924.2 5.86138
15927.1 5.72125
15928.5 5.63232
15929.9 5.51989
15931.3 5.40456
15931.7 5.42721
15932.0 5.59042
15932.4 6.33212
15932.5 7.53574
15932.7 10.2547
15932.9 15.0292
15933.0 19.4906
15933.2 18.5429
15933.3 15.0029
15933.5 11.7969
15933.6 9.94465
15934.0 8.15794
15934.6 6.94060
15936.0 6.26023
15937.3 6.01944
15938.7 5.88652
15941.4 5.72559
15944.1 5.61694
15949.5 5.45299
15954.9 5.31929
15976.4 4.89102
15998.0 4.52867
16019.6 4.17378
16041.1 3.77224
16051.9 3.52642
16062.7 3.22233
16073.5 2.81593
16078.9 2.55146
16084.3 2.22888
16089.7 1.84503
16092.4 1.65021
16095.1 1.50843
16097.8 1.57792
16099.1 1.83466
16100.5 2.43565
16101.1 2.97849
16101.8 3.77198
16102.5 4.97489
16103.2 6.76582
16103.8 9.55894
16104.5 13.8641
16105.2 20.6805
16105.9 31.4726
16106.9 60.5722
16108.0 90.6617
16108.5 93.3305
16109.1 86.4431
16110.2 63.6994
16110.9 50.9371
16111.6 41.5251
16113.0 29.4420
16114.4 22.6043
16115.8 18.4279
16117.2 15.6465
16118.6 13.7010
16121.4 11.2008
16124.2 9.67215
16127.0 8.65444
16132.7 7.38115
16138.3 6.61540
16143.9 6.09897
16155.2 5.43082
16166.5 4.99795
16177.7 4.67735
16200.2 4.19374
16222.8 3.81802
16234.0 3.67601
16245.3 3.60985
16256.5 3.74604
16262.2 3.99630
16267.8 4.51093
16273.4 5.54751
16279.1 7.69295
16284.7 12.3923
16287.5 16.6768
16290.3 23.1927
16295.2 41.6470
16300.0 61.1621
16302.4 62.9012
16304.9 58.3428
16309.7 43.0564
16314.6 30.9283
16319.6 23.4424
16324.5 18.7860
16329.4 15.7566
16334.4 13.6730
16339.3 12.1799
16349.2 10.2087
16359.0 8.98254
16368.9 8.15446
16388.6 7.10925
16408.4 6.47435
16428.1 6.04275
16467.6 5.47810
16507.0 5.10354
16546.5 4.80716
16566.2 4.66220
16585.9 4.49115
16595.8 4.37402
16600.7 4.29658
16605.7 4.19511
16610.6 4.04912
16613.1 3.94642
16615.5 3.81054
16618.0 3.62096
16620.5 3.35600
16621.7 3.20998
16622.9 3.18504
16623.6 3.40268
16624.2 4.20040
16624.5 5.19689
16624.8 7.15432
16625.1 11.1947
16625.3 14.5676
16625.4 19.4346
16625.7 35.0823
16626.0 51.5923
16626.3 49.2958
16626.6 36.7199
16627.0 25.6176
16627.3 19.3333
16627.6 15.4863
16628.0 13.1210
16628.3 11.4811
16628.7 10.3535
16629.4 8.86157
16630.1 7.94881
16630.7 7.33982
16632.1 6.58974
16633.5 6.14310
16634.9 5.84964
16637.6 5.48860
16640.4 5.27247
16643.1 5.12814
16648.6 4.94315
16654.2 4.82631
16659.7 4.74297
16670.7 4.62618
16692.7 4.47573
16714.7 4.36840
16802.9 4.06144
16979.2 3.58673
17155.4 3.11591
17243.6 2.84824
17287.7 2.69609
17309.7 2.60625
17320.7 2.54317
17326.2 2.48468
17329.0 2.42711
17330.4 2.41300
17331.0 2.57522
17331.4 3.05189
17331.6 3.75284
17331.7 5.48794
17331.9 8.08082
17332.0 10.7009
17332.1 9.95342
17332.3 7.77439
17332.5 5.25815
17332.8 4.20814
17333.2 3.40135
17334.2 2.94135
17336.2 2.71901
17340.0 2.60723
17347.8 2.53292
17363.3 2.45104
17394.3 2.31283
17456.4 2.02097
17518.4 1.68001
17580.4 1.27292
17642.5 0.799057
17673.5 0.561182
17704.5 0.385087
17720.0 0.365387
17735.5 0.447229
17743.3 0.551915
17751.1 0.721219
17758.8 0.981537
17766.6 1.37001
17774.3 1.94392
17782.1 2.78699
17789.8 4.03356
17797.6 5.88900
17805.3 8.69444
17813.1 12.9876
17820.9 19.6509
17828.6 29.9435
17852.7 86.3530
17853.0 86.8178
17853.3 87.3987
17854.2 88.8367
17855.0 90.0425
17858.3 93.0274
17861.6 93.1982
17868.2 86.6570
17881.4 63.6554
17887.6 53.9199
17890.6 49.3379
17891.4 48.0909
17892.2 46.6434
17892.6 45.7293
17892.9 44.5758
17893.3 42.8968
17893.5 41.7863
17893.7 40.9734
17893.9 42.3085
17893.9 44.6516
17894.0 47.3278
17894.2 51.2718
17894.3 51.6544
17894.5 50.4054
17894.7 49.2398
17895.2 47.5788
17896.0 45.6359
17896.9 44.3019
17897.7 43.1959
17901.1 39.6151
17907.9 34.0957
17921.5 26.4369
17935.1 21.4071
17941.9 19.4128
17943.6 18.9068
17945.3 18.3371
17946.2 17.9877
17947.0 17.5295
17947.4 17.2144
17947.9 16.8110
17948.3 16.3177
17948.5 16.2613
17948.7 17.3384
17948.9 20.2521
17949.0 24.7753
17949.1 26.5135
17949.3 25.2696
17949.5 23.2820
17949.7 21.9649
17950.0 20.4667
17950.8 19.2124
17951.5 18.6232
17952.2 18.2449
17953.7 17.7236
17955.2 17.3339
17958.1 16.7025
17961.1 16.1680
17972.9 14.4797
17996.5 12.3101
18020.1 11.2761
18031.9 11.1923
18037.8 11.2602
18040.8 11.2733
18042.3 11.2056
18043.0 11.1212
18043.4 11.1537
18043.6 11.3567
18043.7 12.1675
18043.9 13.7204
18044.0 15.6821
18044.1 16.0597
18044.3 15.1483
18044.4 14.0442
18044.6 13.3716
18045.0 12.7263
18045.7 12.3028
18047.1 12.1311
18050.0 12.2211
18055.7 12.7665
18067.0 14.8321
18078.4 18.8494
18089.8 26.3788
18117.0 60.2431
18130.6 57.7684
18144.2 43.0701
18158.0 31.3470
18171.8 24.1024
18185.6 19.5992
18199.3 16.6540
18226.9 13.1387
18254.5 11.1522
18282.0 9.87927
18309.6 8.98932
18337.2 8.32141
18351.0 8.03262
18357.8 7.87545
18361.3 7.76065
18363.0 7.65897
18363.9 7.59959
18364.3 7.67261
18364.5 7.93155
18364.7 8.89811
18365.0 12.0545
18365.3 10.9718
18365.5 9.52169
18365.8 8.87858
18366.3 8.38300
18367.3 8.07701
18369.4 7.89619
18373.4 7.75994
18381.6 7.60226
18397.9 7.36041
18430.6 6.96892
18496.0 6.38076
18626.6 5.60697
18757.3 5.09169
18888.0 4.70169
19149.4 4.08971
19280.1 3.80655
19345.4 3.65109
19378.1 3.55936
19394.4 3.49937
19402.6 3.44971
19406.7 3.39577
19408.7 3.33694
19409.7 3.31207
19410.2 3.41846
19410.5 3.73332
19410.7 4.97720
19411.0 8.33570
19411.3 6.83821
19411.5 5.27782
19411.8 4.60350
19412.2 4.07416
19413.2 3.76296
19415.1 3.60320
19419.0 3.51792
19426.7 3.45661
19442.1 3.38064
19457.6 3.30546
19473.0 3.21688
19488.4 3.10253
19496.2 3.03015
19503.9 2.94453
19511.6 2.84874
19519.3 2.78941
19523.2 2.85967
19525.1 2.98383
19527.0 3.25083
19529.0 3.83030
19530.9 5.17451
19531.9 6.50082
19532.8 8.69956
19533.8 12.5301
19534.7 19.3808
19537.0 49.4644
19537.6 51.1935
19538.1 47.4844
19539.3 34.4564
19540.5 23.5846
19541.7 17.2757
19543.0 13.5183
19544.2 11.1828
19545.4 9.61593
19546.6 8.52824
19549.1 7.13260
19551.5 6.29062
19554.0 5.73785
19558.9 5.06644
19563.8 4.67617
19568.6 4.42274
19578.4 4.11122
19588.2 3.92384
19598.0 3.79578
19617.6 3.62392
19637.1 3.50516
19656.7 3.41088
19695.9 3.25238
19735.0 3.10005
19754.6 3.01623
19774.1 2.91965
19793.7 2.79942
19803.5 2.72468
19813.3 2.63598
19823.1 2.53263
19832.9 2.44461
19837.8 2.47142
19840.2 2.55429
19842.7 2.75302
19845.1 3.21874
19847.5 4.36450
19848.8 5.55374
19850.0 7.61815
19851.2 11.4180
19852.4 18.6805
19855.0 47.9615
19855.7 49.6586
19856.3 46.0761
19857.6 33.3541
19858.7 24.3907
19859.8 18.5819
19860.9 14.7974
19862.0 12.2959
19864.3 9.28899
19866.5 7.63369
19868.7 6.60964
19870.9 5.93059
19875.4 5.09397
19879.8 4.60662
19884.3 4.28997
19893.2 3.90363
19902.1 3.67468
19911.0 3.52103
19928.8 3.32101
19946.6 3.18920
19964.4 3.09001
20000.0 2.93804
20053.2 2.75936
20106.3 2.60059
20212.6 2.28582
20265.8 2.11306
20318.9 1.91372
20345.5 1.79485
20358.8 1.72751
20372.1 1.65374
20385.3 1.57600
20398.6 1.52209
20405.3 1.55572
20408.6 1.62730
20411.9 1.78994
20415.2 2.16274
20416.9 2.51809
20418.6 3.09894
20420.2 4.09778
20421.9 5.93379
20423.5 9.59742
20424.4 12.7740
20425.2 17.4762
20428.0 44.3694
20428.7 45.8984
20429.4 42.3178
20430.8 29.6382
20432.3 19.5397
20433.7 13.6966
20435.2 10.2892
20436.7 8.19180
20438.1 6.80156
20439.6 5.84469
20442.5 4.62918
20445.5 3.90774
20448.4 3.44045
20454.3 2.87495
20460.1 2.54324
20466.0 2.31744
20471.9 2.13053
20474.8 2.02624
20476.3 1.99535
20477.0 2.15508
20477.4 2.66758
20477.5 3.42673
20477.7 5.24658
20477.9 8.01200
20478.0 10.6361
20478.1 9.86086
20478.3 7.51013
20478.5 4.94588
20478.8 3.85781
20479.2 2.99427
20480.1 2.48560
20482.0 2.22416
20485.7 2.06752
20493.2 1.93036
20500.6 1.83993
20508.0 1.76689
20537.8 1.54576
20597.3 1.20710
20656.8 0.890630
20716.3 0.567846
20775.8 0.252185
20805.6 0.119387
20820.5 0.0693283
20835.3 0.0379590
20850.2 0.0348681
20865.1 0.0751210
20872.5 0.118597
20880.0 0.183178
20887.4 0.274761
20894.9 0.401236
20902.3 0.574425
20909.7 0.811358
20917.2 1.13961
20924.6 1.60839
20932.1 2.32116
20939.5 3.56114
20943.2 4.65358
20945.1 5.46151
20946.9 6.59407
20948.8 8.31611
20950.7 11.2657
20951.6 13.6810
20952.5 17.3361
20953.4 23.3001
20954.4 33.6809
20955.2 49.5209
20956.0 67.6225
20956.4 68.4485
20956.8 59.0181
20957.6 30.1572
20958.1 19.3883
20958.5 12.5690
20959.0 8.17165
20959.4 5.46074
20959.8 3.69053
20960.3 2.57632
20961.1 1.37446
20962.0 0.900032
20962.9 0.765964
20964.6 0.924891
20968.1 1.72318
20971.6 2.63242
20978.5 4.56060
20985.5 6.79531
20999.4 13.1692
21013.3 24.0417
21031.7 49.2305
21050.0 76.7229
21059.2 80.2199
21068.4 75.4260
21086.7 57.0397
21100.1 45.6752
21113.5 37.7244
21140.2 29.4737
21167.0 28.3695
21193.7 34.2548
21203.9 38.9399
21209.0 42.0181
21214.1 45.9533
21215.8 47.6593
21217.6 49.7196
21218.4 50.9736
21219.3 52.4083
21220.1 54.0624
21221.0 55.7905
21221.4 56.4267
21221.9 56.3522
21222.3 54.4534
21222.7 48.4516
21223.2 36.4086
21223.6 23.4400
21223.8 19.7833
21224.0 18.6337
21224.5 20.7786
21224.9 24.9778
21225.3 28.8314
21225.8 31.9988
21226.2 34.5382
21227.0 38.2703
21227.9 40.8743
21229.0 43.2286
21230.0 45.0111
21232.2 47.6532
21236.5 51.2152
21245.0 55.3811
21255.9 56.8626
21261.3 56.1745
21264.0 55.4627
21265.4 54.9469
21266.1 54.6133
21266.4 54.5083
21266.7 55.2299
21266.9 56.6184
21267.0 58.4447
21267.1 58.8651
21267.3 58.0297
21267.5 56.7467
21267.7 56.0085
21268.2 55.2808
21269.1 54.5773
21270.9 53.6947
21274.5 52.1040
21281.8 48.7108
21296.3 41.5469
21298.5 40.4013
21299.6 39.7542
21300.2 39.4209
21300.5 39.3755
21300.7 40.1024
21300.9 41.4983
21301.0 43.2737
21301.3 42.6801
21301.5 41.2140
21301.8 40.4554
21302.3 39.6881
21303.3 38.9005
21305.3 37.8420
21309.3 36.0728
21317.3 32.9521
21333.4 27.8405
21365.6 20.9240
21397.7 16.7042
21429.8 13.9399
21462.0 11.9964
21494.1 10.5266
21526.3 9.25747
21534.3 8.90401
21538.3 8.69905
21542.3 8.45641
21546.3 8.14008
21548.4 7.93156
21550.4 7.66389
21552.4 7.29844
21554.4 6.76923
21555.4 6.42945
21556.4 6.14380
21556.9 6.18940
21557.4 6.76700
21557.6 7.57842
21557.9 9.18498
21558.1 12.3694
21558.4 18.6491
21558.6 25.2842
21558.7 33.5794
21559.0 49.7420
21559.3 49.4264
21559.6 39.4539
21560.0 29.7255
21560.3 23.9458
21560.7 20.3641
21561.0 18.0184
21561.4 16.3568
21561.7 15.1909
21562.4 13.6293
21563.1 12.6293
21563.8 11.9540
21565.2 11.0869
21566.7 10.5484
21568.1 10.1800
21570.9 9.70014
21573.7 9.38851
21576.5 9.16251
21582.1 8.83687
21587.8 8.59692
21593.4 8.40092
21604.6 8.07846
21627.2 7.56183
21649.7 7.12224
21694.7 6.30856
21717.2 5.85645
21728.5 5.57479
21734.1 5.38800
21736.9 5.24866
21738.3 5.14086
21739.0 5.11175
21739.4 5.24806
21739.7 6.41400
21740.0 9.49723
21740.3 8.37442
21740.6 6.81430
21740.9 6.20290
21741.4 5.74087
21742.6 5.44982
21744.9 5.24064
21749.6 4.99295
21754.2 4.75288
21758.9 4.47947
21763.5 4.16440
21768.2 3.87368
21770.5 3.86939
21772.8 4.29993
21774.0 4.97457
21775.1 6.37556
21776.3 9.31450
21776.9 11.8440
21777.5 15.4871
21778.7 28.6393
21780.0 43.1648
21781.3 42.6328
21782.5 33.3466
21783.7 26.1185
21784.9 21.2499
21786.0 17.9822
21787.2 15.7214
21789.5 12.8893
21791.8 11.2327
21794.2 10.1587
21796.5 9.41623
21801.1 8.45448
21805.8 7.85532
21810.4 7.44377
21819.7 6.90203
21829.0 6.54898
21838.3 6.29026
21856.9 5.91449
21894.0 5.40022
21931.2 5.00189
21968.3 4.63423
22005.5 4.23505
22024.1 3.98512
22033.4 3.83034
22042.6 3.63957
22051.9 3.38797
22056.6 3.22603
22061.2 3.03110
22065.9 2.80199
22070.5 2.60108
22072.8 2.62901
22074.0 2.75722
22075.2 3.05824
22076.3 3.70457
22077.5 5.08051
22078.6 8.09433
22079.2 10.8065
22079.8 14.8637
22080.9 27.7915
22082.0 41.9855
22082.6 43.7944
22083.1 41.2358
22084.2 31.5233
22085.5 22.4703
22086.8 17.1181
22088.1 13.8675
22089.4 11.8023
22090.6 10.3875
22091.9 9.38449
22094.5 8.05794
22097.1 7.23302
22099.6 6.67383
22104.8 5.96624
22109.9 5.53302
22115.0 5.23750
22125.3 4.85103
22135.6 4.59838
22145.9 4.41192
22166.4 4.13631
22207.5 3.74355
22248.6 3.42611
22330.8 2.84827
22413.0 2.26778
22495.2 1.67018
22536.2 1.39760
22577.3 1.21853
22618.4 1.32528
22639.0 1.63784
22659.5 2.31251
22680.1 3.66070
22700.6 6.30725
22710.9 8.48309
22721.2 11.5509
22731.4 15.8796
22741.7 21.9376
22753.8 31.9186
22765.9 45.1100
22790.0 70.8689
22802.1 74.2219
22814.2 69.9586
22838.3 53.2412
22858.0 41.5180
22877.6 33.1815
22897.3 27.3728
22916.9 23.2436
22956.2 17.9309
22995.5 14.7486
23034.8 12.6609
23074.1 11.1907
23113.3 10.0845
23133.0 9.59441
23137.9 9.46238
23142.8 9.30917
23147.7 9.09300
23150.2 8.95912
23151.4 9.14294
23152.0 10.0607
23152.3 11.8196
23152.5 13.6852
23152.6 17.0035
23153.0 31.5408
23153.2 30.4174
23153.4 24.0900
23153.5 19.5892
23153.7 16.6032
23154.1 13.5460
23154.4 12.1390
23154.8 11.3900
23155.5 10.5997
23156.2 10.2134
23157.7 9.82834
23159.1 9.63315
23161.9 9.42169
23164.8 9.29550
23170.5 9.12372
23176.2 8.99302
23187.7 8.77609
23199.1 8.58738
23244.8 7.96290
23267.6 7.70309
23290.5 7.47562
23301.9 7.38130
23313.4 7.32549
23319.1 7.34496
23321.9 7.38975
23324.8 7.48969
23327.6 7.72183
23329.1 7.95297
23330.5 8.35523
23331.9 9.14775
23332.6 9.86400
23333.4 11.0025
23334.1 13.0262
23334.8 16.9461
23335.1 20.4900
23335.5 25.9166
23335.9 35.1207
23336.2 50.0951
23336.6 76.0018
23337.0 93.4774
23337.4 76.3090
23337.8 50.3005
23338.2 33.6140
23338.6 24.2754
23339.0 18.8965
23339.4 15.6760
23339.8 13.5295
23340.2 12.1042
23341.0 10.3266
23341.8 9.31272
23342.6 8.69525
23344.1 8.00125
23345.7 7.63604
23347.3 7.41978
23350.5 7.17774
23353.6 7.04357
23356.8 6.95431
23363.1 6.82936
23375.8 6.61825
23382.1 6.46945
23385.3 6.41449
23386.1 6.47073
23386.9 6.70436
23387.7 7.70365
23388.1 9.38807
23388.5 13.8436
23389.0 26.7560
23389.3 25.5275
23389.5 19.7908
23389.8 14.9270
23390.2 12.2249
23390.8 9.70083
23391.4 8.63970
23392.0 8.09458
23393.3 7.54753
23394.5 7.28156
23397.0 7.02050
23399.5 6.88905
23404.6 6.74580
23409.6 6.65973
23419.6 6.54226
23429.6 6.45236
23449.6 6.30238
23469.6 6.17024
23509.7 5.92666
23529.7 5.79530
23539.7 5.69379
23544.7 5.57622
23547.2 5.41768
23548.5 5.24151
23549.1 5.17550
23549.4 5.38985
23549.7 7.12110
23549.9 9.64946
23550.0 12.6742
23550.1 12.9471
23550.3 11.2841
23550.5 9.07196
23550.8 7.95318
23551.2 7.00916
23552.2 6.39478
23554.1 6.06068
23557.9 5.88243
23565.5 5.77383
23573.0 5.72546
23580.6 5.70377
23588.2 5.72036
23592.0 5.76002
23595.8 5.84917
23599.6 6.05691
23601.5 6.26582
23603.4 6.63317
23605.3 7.36339
23606.2 8.02327
23607.2 9.08026
23608.1 10.9610
23609.1 14.6916
23609.5 18.0916
23610.0 23.3952
23610.5 32.2064
23611.0 47.1077
23611.5 72.8452
23612.0 89.8464
23612.5 72.8809
23613.1 47.8695
23613.6 30.2300
23614.2 21.1156
23614.8 16.0104
23615.4 13.0387
23616.0 11.1236
23616.6 9.86421
23617.7 8.32726
23618.9 7.47181
23620.1 6.94708
23622.4 6.36107
23624.8 6.05524
23627.1 5.87294
23631.8 5.66950
23636.5 5.55830
23641.1 5.48605
23650.5 5.39123
23669.2 5.26964
23687.9 5.17586
23725.3 5.01206
23762.7 4.85873
23800.2 4.70589
23837.6 4.54214
23856.3 4.44781
23875.0 4.33300
23884.4 4.26207
23893.7 4.18510
23898.4 4.16251
23903.1 4.22538
23905.4 4.38678
23906.6 4.56317
23907.8 4.87810
23908.9 5.47176
23910.1 6.68651
23910.7 7.78692
23911.3 9.47525
23911.9 12.1894
23912.4 16.6399
23914.0 38.4438
23914.4 39.8104
23914.8 37.0186
23915.6 26.9976
23916.4 18.9383
23917.2 14.2418
23918.0 11.4876
23918.8 9.79198
23919.7 8.65677
23920.5 7.86890
23922.1 6.87522
23923.8 6.28217
23925.4 5.89904
23928.6 5.43734
23931.9 5.17141
23935.2 4.99934
23941.7 4.78822
23948.3 4.65996
23954.8 4.57084
23967.8 4.44770
23980.9 4.35932
23994.0 4.28749
24020.1 4.16764
24072.4 3.96490
24124.7 3.77737
24229.2 3.39996
24281.5 3.19417
24307.6 3.07574
24320.7 2.99708
24327.2 2.92764
24330.5 2.84882
24332.1 2.76785
24332.9 2.75237
24333.3 2.93145
24333.5 3.31735
24333.7 4.55739
24334.0 8.52848
24334.3 6.95985
24334.5 5.43397
24334.7 4.64595
24335.1 3.91808
24335.8 3.45066
24337.4 3.19833
24340.5 3.06423
24346.6 2.97603
24359.0 2.87750
24371.3 2.76206
24377.5 2.63963
24380.6 2.48642
24382.2 2.34652
24382.9 2.40270
24383.3 2.91572
24383.5 3.80097
24383.7 6.15887
24383.9 10.2071
24384.0 14.4079
24384.2 14.1315
24384.3 11.0865
24384.5 7.73935
24384.8 6.02271
24385.3 4.57367
24386.2 3.68324
24388.1 3.21804
24391.9 2.98040
24399.5 2.83940
24414.8 2.71563
24445.2 2.53934
24506.2 2.19253
24567.1 1.79458
24628.0 1.31653
24688.9 0.739873
24719.4 0.426515
24749.9 0.142057
24765.1 0.0458164
24772.7 0.0223704
24780.3 0.0242438
24787.9 0.0612976
24795.6 0.147135
24803.2 0.301294
24810.8 0.550810
24818.4 0.935944
24826.0 1.51337
24833.6 2.36992
24841.2 3.63038
24848.9 5.48880
24856.5 8.22404
24864.1 12.2546
24871.7 18.1179
24880.0 27.3238
24888.4 39.6015
24905.0 63.8319
24913.3 67.2569
24921.7 63.7557
24938.3 49.1855
24942.8 45.4764
24947.2 42.1801
24949.4 40.7738
24951.7 39.7432
24952.8 39.5730
24953.9 40.0554
24954.4 40.8835
24955.0 42.5650
24955.5 46.1506
24956.1 53.6266
24956.6 64.1576
24957.0 70.9789
24957.5 63.5960
24957.9 52.8368
24958.4 44.9046
24959.0 40.7031
24959.5 38.3082
24960.0 36.7944
24961.1 34.9557
24962.1 33.8103
24963.2 32.9428
24964.3 32.2284
24966.4 31.0161
24970.6 29.0079
24974.8 27.2820
24979.0 25.7271
24983.2 24.2631
24985.4 23.5179
24987.5 22.6832
24988.5 22.1640
24989.6 21.4673
24990.1 20.9604
24990.6 20.2239
24991.2 19.0389
24991.4 18.3201
24991.7 18.6062
24991.8 21.5673
24992.0 27.6584
24992.2 30.9257
24992.3 30.3190
24992.6 28.1646
24992.8 26.6288
24993.3 24.9547
24994.3 23.4835
24995.3 22.7519
24996.3 22.2639
24998.2 21.5551
25000.2 21.0023
25004.2 20.0893
25008.1 19.3135
25023.9 16.8869
25055.4 13.7603
25087.0 11.8380
25118.5 10.5610
25181.6 9.03599
25197.4 8.78901
25213.2 8.58164
25229.0 8.41619
25236.8 8.38300
25240.8 8.51687
25241.8 8.67466
25242.8 9.09348
25243.3 9.62664
25243.7 10.8541
25244.0 12.2140
25244.2 14.7671
25244.5 20.8725
25244.6 26.7891
25244.7 36.7764
25244.9 53.8748
25245.0 65.6222
25245.1 54.2175
25245.3 37.1941
25245.4 29.1968
25245.5 23.3396
25245.7 16.8479
25245.9 13.7013
25246.1 12.0542
25246.5 10.3636
25246.8 9.58933
25247.6 8.91698
25248.4 8.64529
25250.0 8.42159
25251.6 8.32897
25257.8 8.19912
25270.4 8.09731
25282.9 8.03058
25295.5 7.98257
25345.7 7.94804
25446.1 8.71068
25546.6 11.2992
25596.8 13.9191
25647.0 18.1003
25689.9 23.4130
25711.3 26.7366
25722.0 28.5242
25727.4 29.4035
25730.1 29.7810
25731.4 29.8988
25732.1 29.9577
25732.4 30.1434
25732.7 31.4578
25733.0 35.4308
25733.3 34.5032
25733.5 32.8288
25733.8 32.1036
25734.3 31.5690
25735.4 31.3702
25737.5 31.5441
25741.6 32.2003
25750.0 33.6681
25766.6 36.6067
25783.3 39.2770
25791.7 40.4325
25800.0 41.4397
25807.8 42.3182
25809.7 42.6136
25811.7 43.1252
25812.6 43.6571
25813.6 44.8450
25814.1 46.1615
25814.6 48.8014
25814.8 51.3990
25815.1 55.6035
25815.3 63.1252
25815.6 77.1123
25815.8 98.5169
25816.0 112.158
25816.2 98.0145
25816.5 77.7447
25816.6 68.5635
25816.7 62.5211
25817.0 54.8819
25817.3 50.8284
25817.5 48.5578
25818.1 46.1164
25818.6 44.9919
25819.7 44.0135
25820.7 43.6348
25822.9 43.3697
25825.0 43.3004
25833.5 43.2547
25850.6 42.6548
25884.7 38.9820
25901.8 36.2701
25918.9 33.2011
25927.4 31.5505
25935.9 29.8108
25944.5 27.9474
25948.7 26.9561
25953.0 25.9335
25957.5 24.8761
25959.7 24.4218
25962.0 24.1293
25964.2 24.2193
25966.5 25.2414
25968.7 28.6451
25971.0 38.2380
25973.0 57.6287
25975.0 79.6564
25977.0 79.8103
25979.1 66.9897
25981.0 56.3643
25982.9 49.0091
25984.8 43.9751
25986.7 40.4234
25990.6 35.7648
25994.4 32.8390
25998.2 30.7858
26002.1 29.2354
26009.7 26.9522
26017.4 25.2585
26025.0 23.8905
26040.4 21.6975
26055.7 19.9264
26071.0 18.4112
26086.4 17.0363
26090.2 16.6859
26094.0 16.2979
26095.9 16.0640
26097.8 15.7613
26098.8 15.5511
26099.8 15.2602
26100.7 14.8649
26101.2 14.8837
26101.4 15.4845
26101.7 17.9594
26101.8 22.5350
26102.0 28.1337
26102.2 28.8924
26102.3 26.0564
26102.5 23.2628
26102.7 21.3846
26103.0 19.3619
26103.8 17.7793
26105.2 16.7715
26106.6 16.3558
26108.1 16.0990
26110.9 15.7483
26113.8 15.4817
26119.5 15.0387
26125.2 14.6499
26148.1 13.3128
26193.9 11.1752
26285.5 8.04431
26331.3 6.80071
26377.0 5.70689
26422.8 4.83359
26445.7 4.55206
26451.5 4.49077
26457.2 4.40219
26460.0 4.32055
26462.9 4.16275
26464.3 4.01649
26465.8 3.76902
26466.5 3.57958
26467.2 3.35272
26467.9 3.34879
26468.3 4.17962
26468.4 5.55488
26468.6 8.64261
26468.8 15.5512
26469.0 23.7375
26469.2 24.3525
26469.4 19.8350
26469.6 14.7674
26469.9 11.9157
26470.4 9.10131
26470.9 7.84081
26471.4 7.16435
26472.4 6.45234
26473.4 6.10574
26475.5 5.78566
26477.5 5.66070
26481.6 5.62111
26485.6 5.70792
26501.8 6.72780
26518.1 8.91097
26534.3 12.8894
26548.2 18.3470
26562.2 25.7983
26576.1 33.9998
26590.0 40.1777
26617.9 40.5683
26645.7 33.2802
26671.6 27.1828
26697.5 22.8008
26723.3 19.7079
26749.2 17.4684
26800.9 14.4953
26852.7 12.6249
26904.4 11.3348
26956.2 10.3792
27007.9 9.61571
27020.8 9.43519
27033.8 9.24086
27040.2 9.12509
27046.7 8.97061
27049.9 8.85602
27053.2 8.67493
27054.8 8.52632
27056.4 8.29065
27057.2 8.11207
27058.0 7.88291
27058.8 7.79243
27059.2 8.44191
27059.4 9.68242
27059.6 12.8282
27059.8 19.3346
27060.0 26.5881
27060.2 26.9243
27060.4 22.7789
27060.6 18.9790
27060.8 16.4737
27061.1 13.7447
27061.9 11.6373
27062.6 10.8009
27063.4 10.3619
27064.9 9.90994
27066.4 9.67655
27069.4 9.42928
27072.4 9.29257
27078.4 9.12803
27084.4 9.01846
27096.4 8.85606
27108.5 8.72446
27156.5 8.30185
27204.6 7.95625
27228.7 7.80529
27240.7 7.75175
27246.7 7.80183
27249.7 8.10627
27250.4 8.40201
27251.2 9.13491
27251.6 9.99514
27251.9 11.7761
27252.1 13.5517
27252.3 16.6544
27252.5 22.5618
27252.7 34.1272
27252.8 49.8387
27253.0 61.0051
27253.2 50.2098
27253.3 34.5819
27253.5 23.8704
27253.6 18.1975
27254.0 12.9486
27254.3 10.7416
27254.6 9.68977
27255.3 8.71637
27255.9 8.30653
27257.2 7.96347
27258.5 7.82455
27263.7 7.65393
27274.0 7.55482
27294.7 7.43062
27336.0 7.21779
27418.7 6.84757
27584.0 6.24704
27749.4 5.76357
27832.1 5.55030
27873.4 5.44918
27894.1 5.40125
27904.4 5.38473
27909.6 5.40650
27912.2 5.52881
27913.5 5.95046
27914.1 7.10572
27914.4 9.32068
27914.6 12.1591
27914.8 18.3489
27914.9 26.1860
27915.0 31.5387
27915.1 26.3460
27915.2 18.5404
27915.5 10.8047
27915.7 8.13882
27916.2 6.43227
27917.1 5.69750
27919.0 5.44611
27922.7 5.36317
27930.2 5.32442
27945.2 5.28366
27975.1 5.21360
28035.0 5.08011
28094.9 4.95110
28124.8 4.88824
28139.8 4.85934
28147.3 4.85561
28151.0 4.89694
28152.9 5.07199
28153.8 5.63093
28154.3 6.99650
28154.5 9.22998
28154.7 11.8181
28154.8 16.4995
28154.9 23.6839
28155.0 28.3720
28155.1 23.8440
28155.2 16.6982
28155.4 11.7132
28155.5 9.07981
28155.7 6.88860
28156.2 5.59477
28157.3 5.06705
28159.3 4.88996
28163.4 4.83020
28171.5 4.79844
28187.8 4.76051
28220.4 4.69278
28285.6 4.56177
28416.0 4.30766
28546.3 4.06299
28611.5 3.94531
28644.1 3.88880
28660.4 3.86537
28668.6 3.87368
28672.6 3.95639
28674.7 4.27189
28675.7 5.22098
28676.2 7.36614
28676.5 10.5565
28676.6 13.9103
28676.7 19.2104
28676.9 28.7863
28677.0 34.8586
28677.1 29.0036
28677.3 19.4807
28677.4 14.1611
28677.5 10.7757
28677.8 7.45304
28678.3 5.30630
28679.3 4.32004
28681.4 3.97413
28685.5 3.86224
28693.7 3.81792
28710.1 3.78151
28743.0 3.72418
28775.9 3.66384
28792.3 3.61670
28800.5 3.55936
28804.6 3.47387
28806.7 3.35662
28807.7 3.25343
28808.2 3.29530
28808.5 3.59052
28808.7 4.96564
28809.0 9.45482
28809.3 8.13609
28809.6 5.83808
28810.0 4.98256
28810.6 4.35282
28812.0 3.99747
28814.6 3.81486
28819.9 3.72060
28830.6 3.66554
28851.9 3.62270
28894.4 3.57967
28979.5 3.57264
29064.7 3.72159
29107.2 3.89953
29128.5 4.02889
29139.1 4.11121
29144.5 4.17908
29147.1 4.30310
29148.4 4.66155
29149.1 5.61220
29149.4 7.48946
29149.6 10.0831
29149.8 16.0544
29149.9 22.9608
29150.0 28.1439
29150.1 23.1473
29150.2 16.2826
29150.5 9.10993
29150.7 6.67984
29151.1 5.19080
29152.1 4.53588
29153.9 4.32523
29157.5 4.28964
29164.8 4.33976
29179.3 4.49163
29208.4 4.88777
29266.6 6.15322
29324.8 8.46808
29383.0 12.6709
29423.9 17.3536
29444.3 20.3100
29454.5 21.9075
29459.6 22.6942
29462.2 23.0322
29463.5 23.1489
29464.1 23.2428
29464.4 23.4939
29464.7 24.8426
29465.0 28.7804
29465.3 27.6678
29465.6 25.8729
29465.9 25.1528
29466.4 24.6644
29467.6 24.5192
29470.0 24.7460
29474.6 25.4691
29484.0 27.0565
29502.6 30.2366
29540.0 35.4087
29618.5 35.7458
29697.0 27.9458
29768.6 21.6808
29840.2 17.3757
29911.8 14.4708
29983.4 12.4448
30126.5 9.84158
30198.1 8.93751
30233.9 8.53279
30251.8 8.32063
30260.8 8.17957
30265.2 8.04758
30267.5 7.89801
30268.6 7.76992
30269.2 7.80960
30269.4 8.15516
30269.7 9.76811
30269.9 12.2550
30270.0 14.9430
30270.2 14.9934
30270.3 13.3733
30270.6 11.1467
30270.8 10.0983
30271.3 9.23819
30272.4 8.70781
30274.4 8.41432
30278.6 8.23974
30286.8 8.09360
30303.4 7.90220
30336.4 7.57155
30402.6 6.89937
30435.7 6.49169
30452.2 6.23997
30468.7 5.92750
30485.3 5.50585
30493.6 5.22532
30501.8 4.87108
30510.1 4.41097
30518.4 3.83250
30522.5 3.55531
30526.6 3.49621
30528.7 3.74421
30530.8 4.46961
30532.8 6.23591
30533.9 7.82722
30534.9 10.1604
30536.2 14.4336
30537.4 20.3533
30538.7 27.0578
30540.0 32.3660
30542.6 33.2812
30545.1 27.5523
30547.4 22.8701
30549.7 19.4954
30551.9 17.1109
30554.2 15.3917
30558.8 13.1384
30563.3 11.7563
30567.8 10.8321
30572.4 10.1730
30581.5 9.29490
30590.5 8.73288
30599.6 8.33781
30617.8 7.80731
30635.9 7.45435
30654.1 7.19240
30690.4 6.80715
30726.8 6.51568
30763.1 6.27088
30799.4 6.04766
30817.6 5.93025
30826.6 5.84977
30831.2 5.77092
30833.5 5.67793
30834.6 5.59206
30835.2 5.60352
30835.4 5.80245
30835.7 6.91429
30836.0 10.3351
30836.3 9.28286
30836.7 7.36868
30837.1 6.72993
30837.8 6.30679
30839.4 6.07067
30842.5 5.94075
30848.6 5.85314
30861.0 5.76208
30885.7 5.62267
30935.0 5.36735
31033.8 4.84847
31083.1 4.56165
31132.5 4.24017
31157.2 4.06225
31181.9 3.87273
31206.6 3.68830
31212.7 3.65975
31218.9 3.67705
31222.0 3.74654
31225.1 3.97396
31226.6 4.28145
31228.2 5.03141
31228.9 5.87316
31229.7 7.59459
31230.1 9.21987
31230.5 11.8292
31230.9 16.5233
31231.2 24.8380
31231.6 37.7569
31232.0 46.5758
31232.4 38.0638
31232.8 25.1681
31233.0 18.5410
31233.3 14.1266
31233.6 11.2769
31233.9 9.38109
31234.5 7.14361
31235.1 5.96001
31236.2 4.78654
31237.4 4.26054
31239.7 3.80187
31242.0 3.60566
31246.6 3.42654
31251.2 3.33323
31260.5 3.21391
31269.7 3.12534
31288.2 2.99004
31297.4 2.89651
31299.7 2.84049
31302.0 2.73352
31304.3 2.48957
31305.5 2.31807
31306.1 2.56746
31306.4 3.42843
31306.6 6.59279
31306.8 11.4987
31307.0 17.4045
31307.2 17.5825
31307.4 14.1212
31307.6 10.7544
31307.8 8.70811
31308.2 6.56904
31309.0 5.03353
31310.6 4.19296
31312.3 3.93800
31313.9 3.83714
31317.2 3.79841
31320.4 3.85828
31333.5 4.65784
31346.6 6.62687
31359.7 10.9113
31367.3 15.1728
31374.9 20.9714
31390.0 32.9188
31405.2 33.6480
31420.3 27.0599
31426.5 24.4379
31429.6 23.3295
31431.2 23.0580
31432.0 23.6190
31432.4 25.2583
31432.6 27.6380
31432.8 33.8894
31432.9 41.0035
31433.0 45.6762
31433.1 41.0237
31433.2 33.8262
31433.5 27.2131
31433.7 24.7067
31434.1 22.8514
31434.9 21.7902
31436.5 20.9978
31439.8 19.9481
31446.3 18.2400
31459.4 15.6499
31465.9 14.6584
31472.4 13.8297
31475.7 13.4817
31479.0 13.2193
31480.6 13.1726
31482.2 13.3260
31483.1 13.6359
31483.9 14.4440
31484.3 15.3557
31484.7 17.1461
31485.1 21.1554
31485.3 24.9376
31485.5 31.1585
31485.8 42.7542
31486.0 50.4339
31486.3 43.1401
31486.5 31.6745
31486.7 26.1640
31486.9 22.5355
31487.2 18.2599
31487.6 16.1178
31487.9 14.9172
31488.6 13.6895
31489.3 13.0989
31490.7 12.5170
31492.1 12.2131
31494.9 11.8445
31497.6 11.5819
31503.2 11.1606
31508.8 10.8056
31519.9 10.2070
31531.0 9.71320
31553.3 8.93930
31575.5 8.35846
31620.0 7.53840
31664.6 6.97945
31753.6 6.24199
31842.6 5.74967
31931.6 5.37505
32020.6 5.06657
32065.1 4.93159
32087.4 4.87046
32109.7 4.81715
32131.9 4.78114
32143.0 4.77851
32154.2 4.80054
32165.3 4.88256
32170.9 4.97733
32176.4 5.15582
32182.0 5.52928
32184.8 5.87942
32187.6 6.46734
32190.3 7.55481
32191.7 8.47527
32193.1 9.87605
32194.5 12.1369
32195.9 16.0620
32197.3 23.4707
32198.7 38.2741
32199.8 58.8545
32201.0 72.6945
32202.2 59.2003
32203.3 38.8383
32204.1 29.0269
32204.9 22.4199
32205.7 17.9771
32206.5 14.9546
32208.1 11.2092
32209.7 9.14514
32211.3 7.88748
32212.9 7.07752
32216.1 6.12490
32219.3 5.60879
32222.5 5.29668
32228.8 4.95033
32235.2 4.76708
32241.6 4.65463
32254.3 4.52003
32267.1 4.43641
32279.9 4.37410
32305.4 4.27621
32330.9 4.19334
32356.4 4.11771
32381.9 4.05482
32394.6 4.07162
32397.8 4.11865
32401.0 4.26405
32402.6 4.46165
32404.2 4.96067
32405.0 5.55229
32405.8 6.82168
32406.2 8.09755
32406.6 10.3689
32407.0 14.8130
32407.2 18.6158
32407.4 23.8592
32407.7 36.1661
32408.0 44.2507
32408.3 36.5509
32408.6 24.3616
32408.9 17.8037
32409.1 13.5659
32409.4 10.9105
32409.7 9.18413
32410.2 7.19253
32410.7 6.16304
32411.7 5.16409
32412.8 4.71882
32414.8 4.34013
32416.9 4.18436
32421.0 4.05374
32425.1 3.99636
32441.6 3.90066
32474.6 3.79369
32540.6 3.60582
32672.6 3.24064
32804.5 2.91229
32870.5 2.80281
32903.5 2.78429
32920.0 2.81120
32924.1 2.84223
32928.3 2.92871
32930.3 3.04472
32932.4 3.35161
32933.4 3.73748
32934.4 4.66517
32935.0 5.71737
32935.5 7.83602
32935.7 9.85483
32936.0 13.2284
32936.3 19.2491
32936.5 30.2172
32936.8 46.6608
32937.0 58.2622
32937.3 47.1607
32937.5 30.8219
32937.8 19.7953
32938.0 13.6937
32938.3 10.2518
32938.5 8.24248
32939.0 5.98671
32939.6 4.90112
32940.6 3.90680
32941.6 3.48893
32943.7 3.14646
32945.7 3.01384
32949.8 2.91460
32953.9 2.88166
32970.3 2.87823
32986.7 2.92745
33003.1 3.00537
33068.8 3.68111
33134.4 5.44936
33167.2 7.13248
33200.0 9.69790
33235.0 13.7600
33270.0 19.3247
33340.0 30.7858
33410.0 31.6808
33480.0 25.7029
33561.6 19.5787
33643.2 15.6655
33724.8 13.1741
33806.5 11.5030
33888.1 10.3204
33969.7 9.44824
34010.5 9.09918
34030.9 8.94588
34051.3 8.81036
34071.7 8.70340
34081.9 8.67057
34092.1 8.66712
34102.3 8.72998
34107.4 8.81802
34112.5 8.99184
34117.6 9.35942
34120.2 9.70350
34122.7 10.2774
34125.3 11.3288
34126.5 12.2160
34127.8 13.5480
34129.1 15.7030
34130.4 19.3959
34131.6 26.3995
34132.3 32.2070
34132.9 40.2706
34134.0 59.1451
34135.0 72.0074
34136.1 59.2995
34137.1 39.8433
34138.1 27.7513
34139.1 20.8837
34140.1 16.8902
34141.1 14.4573
34142.1 12.8614
34143.2 11.7777
34145.2 10.4575
34147.2 9.71189
34149.2 9.25521
34153.2 8.74375
34157.2 8.47514
34161.3 8.31385
34169.3 8.12823
34177.4 8.01979
34185.4 7.94380
34201.5 7.83569
34217.6 7.76581
34225.7 7.75119
34233.7 7.76618
34241.8 7.85298
34245.8 7.96112
34249.8 8.17039
34253.9 8.61478
34255.9 9.03156
34257.9 9.72626
34259.9 10.9967
34260.9 12.0504
34261.9 13.5981
34262.9 16.0293
34263.9 19.9814
34264.9 26.9154
34265.9 39.1493
34267.0 58.8870
34268.0 72.3054
34269.0 59.7556
34270.1 40.5766
34271.1 28.4295
34272.1 21.4386
34273.1 17.3130
34274.1 14.7623
34276.0 11.9058
34278.0 10.4500
34280.0 9.60706
34282.0 9.07876
34286.0 8.46962
34290.0 8.13848
34294.0 7.93469
34301.9 7.69622
34309.9 7.55759
34317.9 7.46250
34333.8 7.32984
34349.8 7.23121
34365.7 7.14817
34397.6 7.00496
34429.4 6.87880
34461.3 6.76965
34477.3 6.73200
34493.2 6.74472
34501.2 6.82284
34505.2 6.91786
34509.1 7.10208
34513.1 7.49742
34515.1 7.87248
34517.1 8.50470
34519.1 9.67008
34520.1 10.6529
34521.1 12.1132
34522.1 14.4417
34523.1 18.3001
34524.1 25.2451
34525.1 37.8813
34526.0 57.5181
34527.0 70.8227
34528.0 58.5074
34528.9 39.6335
34529.9 27.2573
34530.9 20.3088
34531.9 16.2413
34532.8 13.7191
34533.8 12.0517
34534.8 10.9189
34536.7 9.50757
34538.7 8.69145
34540.6 8.18032
34544.5 7.59142
34548.4 7.27201
34552.3 7.07597
34560.0 6.84990
34567.8 6.72143
34575.6 6.63597
34591.1 6.52167
34606.7 6.44079
34622.2 6.37493
34653.3 6.26372
34715.5 6.06981
34746.6 5.96516
34762.1 5.88399
34769.9 5.79069
34773.8 5.66348
34775.7 5.51955
34776.7 5.47737
34777.2 5.76186
34777.4 6.41215
34777.7 8.58871
34777.8 11.9569
34778.0 15.7057
34778.2 15.6181
34778.3 13.1004
34778.6 9.98115
34778.9 8.51476
34779.4 7.33012
34780.6 6.61832
34782.8 6.25374
34787.3 6.06904
34796.2 5.96338
34814.1 5.87875
34831.9 5.82276
34840.8 5.80286
34845.3 5.81638
34847.5 5.91160
34848.7 6.24768
34849.2 7.14466
34849.5 8.83515
34849.6 10.9346
34849.8 15.1577
34850.0 24.7951
34850.2 15.4104
34850.5 9.36639
34850.7 7.50878
34851.2 6.44063
34852.2 5.98849
34854.2 5.83078
34858.1 5.77359
34865.9 5.73923
34881.7 5.69543
34913.1 5.61792
34976.0 5.47071
35038.8 5.32425
35070.3 5.24346
35086.0 5.18751
35093.9 5.13174
35097.8 5.06078
35099.8 4.97991
35100.7 4.95080
35101.2 5.10611
35101.5 5.52106
35101.7 6.93334
35102.0 11.2341
35102.3 9.51946
35102.5 7.72186
35102.8 6.83922
35103.2 6.10664
35104.1 5.64473
35105.9 5.40537
35109.6 5.28471
35116.8 5.21469
35131.3 5.15628
35160.4 5.07855
35218.5 4.93966
35276.6 4.79433
35305.6 4.70286
35320.1 4.62372
35327.4 4.52792
35331.0 4.40239
35332.9 4.28799
35333.8 4.35548
35334.2 4.84278
35334.4 5.74168
35334.7 8.07748
35334.8 11.8513
35335.0 16.0609
35335.2 15.7357
35335.3 12.7549
35335.6 9.86741
35335.8 8.19658
35336.2 6.66695
35337.1 5.67471
35338.8 5.15067
35342.3 4.89338
35349.3 4.75927
35363.3 4.66925
35391.2 4.57311
35447.0 4.41576
35502.8 4.25191
35530.8 4.15111
35544.7 4.07043
35551.7 3.98145
35555.2 3.87565
35556.9 3.80476
35557.8 3.94436
35558.2 4.52699
35558.5 5.48152
35558.7 7.77951
35559.0 15.5489
35559.2 15.0363
35559.3 11.9725
35559.6 8.52899
35559.9 6.87675
35560.4 5.57829
35561.6 4.80843
35563.8 4.42895
35568.2 4.24247
35577.0 4.13454
35594.7 4.04084
35630.1 3.90735
35700.8 3.64465
35736.2 3.49973
35771.6 3.33837
35789.3 3.24691
35806.9 3.14007
35815.8 3.07426
35824.6 2.98986
35833.5 2.87004
35837.9 2.87339
35840.1 3.32135
35841.2 4.68591
35841.8 6.89698
35842.0 9.21468
35842.3 13.0290
35843.0 31.0928
35843.2 32.2555
35843.4 29.9401
35843.7 21.7303
35843.9 16.7640
35844.2 13.3136
35844.7 9.34355
35845.2 7.33557
35845.7 6.21492
35846.7 5.03155
35847.7 4.44835
35849.6 3.89364
35851.6 3.63287
35855.6 3.38279
35859.5 3.25742
35867.5 3.12003
35875.4 3.03510
35891.2 2.91448
35907.1 2.81928
35938.8 2.66990
35970.5 2.59881
36002.1 2.72213
36033.8 3.39737
36049.7 4.24643
36065.5 5.84535
36081.4 8.90297
36097.2 14.8084
36116.1 28.3328
36135.0 45.2265
36144.5 48.5758
36153.9 46.7007
36172.8 36.0216
36188.3 28.0363
36203.7 22.3437
36219.2 18.3647
36226.9 16.7497
36230.7 15.8943
36232.7 15.3294
36233.6 15.0094
36234.1 15.0977
36234.6 17.1447
36234.8 20.2464
36235.0 24.2425
36235.2 24.7408
36235.4 22.7330
36235.7 20.3085
36236.0 18.8539
36236.5 17.4484
36237.6 16.3654
36239.8 15.5390
36242.0 15.0692
36244.2 14.7007
36248.6 14.0860
36253.0 13.5586
36270.6 11.8912
36305.9 9.70752
36341.1 8.31646
36376.4 7.33411
36446.8 5.96612
36517.3 4.93701
36587.8 3.97949
36623.0 3.47705
36658.3 2.94663
36693.5 2.41937
36728.7 2.09596
36746.4 2.25541
36764.0 3.06640
36772.8 3.98167
36781.6 5.51891
36790.4 8.05074
36799.2 12.1237
36807.7 18.0979
36816.1 26.3707
36833.0 43.8932
36841.5 47.2255
36849.9 45.7702
36866.8 36.8717
36882.1 29.2969
36897.5 23.7807
36905.1 21.5979
36912.8 19.6336
36920.5 17.7129
36924.3 16.9567
36925.3 16.9948
36926.2 17.3868
36927.2 18.6245
36928.1 21.8577
36929.1 28.9367
36930.0 37.6126
36930.9 38.4441
36931.9 33.6017
36932.6 30.0123
36933.4 27.3263
36934.1 25.3729
36934.8 23.9291
36936.3 21.9727
36937.8 20.7205
36939.3 19.8304
36940.7 19.1618
36943.7 18.1835
36946.6 17.4721
36949.6 16.9074
36955.5 16.0222
36961.4 15.3229
36967.3 14.7376
36979.1 13.7814
37002.7 12.3775
37026.3 11.3703
37073.5 9.99641
37097.1 9.49958
37108.9 9.27699
37114.8 9.15987
37117.8 9.08129
37119.3 9.01113
37120.0 8.94677
37120.7 9.08177
37121.0 9.96114
37121.3 9.97283
37122.1 9.33103
37122.9 9.20248
37124.5 9.11076
37127.8 9.02592
37134.4 8.91143
37147.5 8.72083
37173.7 8.39415
37226.1 7.87150
37330.9 7.13279
37435.7 6.61085
37540.5 6.19439
37645.3 5.81758
37697.7 5.62358
37750.1 5.40856
37802.6 5.14590
37828.8 4.98045
37855.0 4.77544
37881.2 4.50763
37894.3 4.34030
37907.4 4.14733
37920.5 3.94168
37927.0 3.85428
37933.6 3.81355
37940.1 3.89932
37946.7 4.32533
37953.2 5.71683
37956.5 7.27906
37959.8 9.97998
37964.9 17.8549
37970.0 27.6776
37975.1 28.7925
37980.2 23.4385
37985.3 18.6460
37990.3 15.4005
37995.3 13.2434
38000.3 11.7670
38005.3 10.7087
38010.3 9.92245
38020.4 8.83147
38030.4 8.09637
38040.4 7.52061
38045.4 7.23682
38050.5 6.89444
38053.0 6.65654
38055.5 6.30488
38056.7 6.03964
38058.0 5.67682
38059.2 5.31799
38059.9 5.76007
38060.2 6.97939
38060.5 10.5637
38060.7 17.9001
38061.0 26.7228
38061.3 27.8152
38061.5 23.3059
38061.9 17.4630
38062.3 14.2542
38063.1 11.3280
38063.9 10.0348
38064.7 9.32345
38066.3 8.56349
38067.9 8.16394
38071.0 7.73233
38074.2 7.49069
38080.5 7.20181
38086.9 7.01667
38099.5 6.76529
38112.2 6.58715
38137.5 6.33252
38162.8 6.14979
38213.5 5.89031
38264.1 5.70350
38365.4 5.42278
38416.1 5.29497
38441.4 5.21644
38454.1 5.15023
38460.4 5.07208
38463.6 4.96295
38465.1 4.82720
38465.9 4.73527
38466.3 4.82797
38466.7 6.15686
38467.0 10.3004
38467.3 9.32808
38467.7 7.05030
38468.1 6.29164
38468.9 5.76407
38470.5 5.46517
38473.7 5.30471
38480.1 5.20662
38492.9 5.10387
38499.4 5.04334
38505.8 4.94740
38509.0 4.86457
38512.2 4.71996
38513.8 4.59384
38515.4 4.38817
38517.0 4.03263
38517.8 3.94957
38518.2 4.45633
38518.6 7.78503
38518.8 12.8747
38519.0 19.1402
38519.2 19.8737
38519.4 16.5431
38519.7 12.9539
38519.9 10.8194
38520.4 8.63702
38521.3 7.02324
38522.3 6.41103
38523.3 6.09569
38525.2 5.77635
38527.2 5.61507
38531.0 5.45084
38534.9 5.36540
38542.7 5.27283
38550.4 5.21923
38566.0 5.15090
38581.5 5.10181
38643.6 4.94537
38674.6 4.86095
38690.1 4.81000
38705.6 4.74676
38721.2 4.65932
38736.7 4.51499
38744.4 4.39151
38752.2 4.18229
38756.1 4.01077
38760.0 3.75515
38763.8 3.45140
38765.8 3.73621
38766.7 4.79630
38767.2 6.11167
38767.7 8.58797
38768.0 11.3647
38768.4 15.0644
38769.0 23.1817
38769.7 24.0813
38770.3 19.6251
38771.0 15.3934
38771.7 12.6732
38772.4 10.9013
38773.0 9.73367
38774.4 8.30485
38775.8 7.49273
38777.2 6.97757
38778.5 6.62454
38781.3 6.17500
38784.0 5.90201
38786.7 5.71885
38792.2 5.48835
38797.7 5.34768
38803.2 5.25197
38814.1 5.12765
38825.1 5.04757
38836.0 4.98958
38857.9 4.90639
38879.9 4.84499
38901.8 4.79442
38945.6 4.70918
39033.2 4.56245
39120.9 4.41942
39208.5 4.25945
39252.3 4.16352
39296.1 4.04581
39340.0 3.88565
39361.9 3.77513
39383.8 3.62648
39394.7 3.52905
39405.7 3.40786
39416.6 3.25136
39427.6 3.04053
39438.6 2.74045
39444.0 2.53954
39449.5 2.29392
39455.0 2.00549
39460.5 1.75858
39463.2 1.78909
39465.9 2.24215
39467.3 2.87046
39468.7 4.08824
39470.0 6.43330
39471.4 10.8692
39472.3 15.6589
39473.2 22.2367
39475.0 36.5339
39475.9 39.4621
39476.8 38.2185
39478.6 30.3611
39480.0 24.5171
39481.5 20.2079
39482.9 17.1375
39484.3 14.9220
39487.1 12.0367
39490.0 10.2986
39492.8 9.15260
39495.6 8.35094
39501.3 7.31449
39507.0 6.67629
39512.7 6.24676
39518.3 5.93776
39524.0 5.70466
39535.4 5.37523
39546.7 5.15258
39558.0 4.99038
39569.4 4.86600
39592.1 4.68451
39614.8 4.55495
39660.1 4.37238
39705.5 4.23908
39750.9 4.12791
39796.3 4.02282
39819.0 3.95967
39830.3 3.90423
39836.0 3.83590
39838.8 3.74654
39840.3 3.66695
39841.0 3.70415
39841.3 3.96679
39841.7 5.35576
39842.0 9.42858
39842.3 8.06341
39842.8 5.71332
39843.3 4.95879
39844.2 4.46176
39846.0 4.19524
39849.7 4.05874
39857.0 3.98217
39871.7 3.92351
39901.0 3.85205
39959.6 3.72918
40018.3 3.60266
40076.9 3.45992
40135.6 3.28305
40164.9 3.17027
40194.2 3.02727
40223.5 2.82870
40238.2 2.69160
40252.9 2.50946
40267.5 2.24984
40274.8 2.07204
40282.2 1.84499
40289.5 1.55249
40296.8 1.20914
40300.5 1.09044
40304.2 1.23933
40306.0 1.63803
40307.8 2.61134
40308.8 3.52718
40309.7 4.92510
40310.6 7.11153
40311.5 10.4373
40312.4 15.2062
40313.3 21.7509
40315.0 36.0123
40315.9 38.9915
40316.8 37.7324
40318.5 29.6339
40320.5 21.3839
40322.5 16.2922
40324.6 13.1437
40326.6 11.1102
40328.6 9.70736
40330.6 8.70242
40334.6 7.36454
40338.7 6.52572
40342.7 5.95403
40350.7 5.22719
40358.8 4.78170
40366.9 4.47831
40383.0 4.08165
40399.1 3.82183
40415.2 3.62698
40447.4 3.32062
40479.6 3.04226
40495.8 2.89471
40511.9 2.73455
40528.0 2.56452
40544.1 2.43303
40552.1 2.46078
40560.2 2.73910
40564.2 3.12529
40568.3 3.89553
40572.3 5.45870
40576.3 8.67772
40580.7 15.6207
40585.0 24.5720
40587.2 26.5064
40589.4 25.6492
40593.7 20.0672
40597.0 16.0984
40600.3 13.1980
40603.6 11.1512
40606.9 9.69098
40613.5 7.80065
40620.1 6.66628
40626.7 5.91574
40633.3 5.38112
40646.5 4.64441
40672.8 3.58123
40679.4 3.25935
40686.0 2.83037
40689.3 2.55494
40692.6 2.27969
40694.3 2.23606
40695.9 2.50635
40696.8 2.97917
40697.6 3.98767
40698.4 6.14219
40698.8 8.01969
40699.2 10.7570
40699.7 15.1114
40700.1 20.9353
40701.0 33.7863
40701.5 36.4238
40701.9 35.2368
40702.8 27.8234
40703.4 22.6327
40704.1 18.8045
40704.7 16.0298
40705.4 14.0011
40706.7 11.3095
40708.0 9.68045
40709.3 8.59607
40710.6 7.84004
40713.2 6.85450
40715.8 6.24145
40718.4 5.82465
40723.6 5.29194
40728.9 4.96012
40734.1 4.73032
40744.5 4.42372
40754.9 4.22040
40765.3 4.07035
40786.2 3.85296
40807.0 3.69392
40827.9 3.56604
40869.6 3.35960
40911.3 3.18507
40953.0 3.01776
40973.8 2.92682
40994.7 2.81541
41005.1 2.73877
41015.5 2.62244
41020.8 2.52742
41026.0 2.36898
41028.6 2.23711
41031.2 2.03242
41033.8 1.73667
41035.1 1.88734
41035.7 2.89061
41036.1 4.51075
41036.4 8.16613
41036.7 15.5329
41037.0 24.1854
41037.2 25.8063
41037.3 24.6815
41037.6 19.2935
41038.0 13.9914
41038.3 10.7669
41039.0 7.57839
41039.7 6.10831
41040.4 5.29765
41041.8 4.44823
41043.2 4.02153
41045.9 3.59354
41048.7 3.37997
41054.2 3.16119
41059.8 3.04554
41070.8 2.91450
41081.9 2.83280
41104.0 2.71768
41126.2 2.62578
41170.4 2.45900
41192.6 2.36759
41203.6 2.30056
41209.2 2.23098
41211.9 2.14779
41213.3 2.07934
41214.0 2.12824
41214.4 2.42174
41214.7 4.01798
41215.0 8.29106
41215.3 6.62966
41215.6 4.53119
41215.9 3.67331
41216.5 3.03053
41217.7 2.66072
41220.1 2.47270
41225.0 2.37085
41234.6 2.29687
41254.0 2.21062
41292.7 2.06568
41370.0 1.77508
41447.4 1.45879
41486.0 1.28597
41505.4 1.19133
41515.0 1.13443
41519.9 1.09316
41522.3 1.06327
41523.5 1.07246
41524.1 1.18843
41524.7 2.44678
41525.0 4.86321
41525.3 3.54995
41525.7 2.06769
41526.1 1.62024
41526.9 1.34646
41528.6 1.20759
41531.8 1.13331
41538.4 1.07554
41551.5 1.00039
41577.7 0.867008
41630.0 0.606637
41682.4 0.366841
41708.6 0.271774
41721.7 0.236459
41728.2 0.223538
41731.5 0.220465
41733.1 0.226525
41733.9 0.249763
41734.7 0.555766
41735.0 0.908315
41735.3 0.563288
41736.7 0.226957
41738.1 0.213944
41740.9 0.207994
41746.5 0.204779
41757.7 0.211614
41769.0 0.237376
41780.2 0.286960
41791.5 0.366873
41802.7 0.485536
41813.9 0.653871
41825.2 0.886113
41847.7 1.62266
41870.1 2.92584
41892.6 5.19034
41915.1 9.05234
41933.8 14.0878
41952.6 21.0794
41990.0 36.4769
42017.3 39.7570
42030.9 38.2086
42037.7 36.9905
42041.2 36.4036
42042.9 36.3351
42043.7 36.7565
42044.1 37.5701
42044.6 39.9284
42045.0 45.2485
42045.2 43.7385
42045.5 40.4204
42045.8 37.6372
42046.1 36.4485
42046.7 35.4965
42047.9 34.8510
42050.3 34.1841
42055.2 33.0410
42064.9 30.8076
42104.6 23.0690
42144.3 17.9368
42164.1 16.0624
42184.0 14.4197
42193.9 13.5760
42203.8 12.5357
42208.8 11.7926
42211.2 11.2906
42213.7 10.6273
42216.2 9.67792
42217.4 9.02028
42218.7 8.16564
42219.9 7.01968
42221.2 5.47134
42222.4 3.72566
42223.0 3.55082
42223.3 4.21373
42223.6 5.94642
42224.0 9.99345
42224.3 16.5913
42224.7 24.7706
42225.0 31.6039
42225.7 35.2685
42226.4 32.0981
42227.4 26.9333
42228.5 23.6188
42229.5 21.4723
42230.6 20.0275
42231.6 18.9795
42232.6 18.1996
42234.7 17.0987
42236.8 16.3592
42238.9 15.8241
42243.1 15.0937
42247.3 14.6073
42251.4 14.2562
42259.8 13.7761
42276.5 13.2649
42293.2 13.0806
42360.0 14.5932
42387.6 16.3873
42401.4 17.6439
42408.4 18.4741
42411.8 19.1123
42413.5 19.7138
42414.4 20.2926
42415.3 21.5671
42415.6 22.6141
42415.8 23.1033
42416.0 22.7579
42416.2 20.0412
42416.4 16.6550
42416.7 15.4257
42417.1 16.1761
42417.4 16.8020
42418.1 17.5640
42419.4 18.3076
42422.0 19.0049
42427.2 19.8349
42437.6 21.2039
42458.4 23.8948
42500.0 28.6003
42570.0 29.3062
42605.0 26.7535
42622.5 25.1915
42631.3 24.3115
42635.6 23.7891
42640.0 23.0856
42641.6 22.6966
42643.3 22.1320
42644.1 21.7213
42644.9 21.1705
42645.7 20.5851
42646.1 20.8070
42646.5 23.6348
42646.8 29.7247
42647.0 37.9714
42647.3 40.0727
42647.5 37.0667
42647.8 33.5809
42648.1 31.1265
42648.7 28.4079
42649.2 26.9964
42649.8 26.1464
42650.9 25.1595
42652.1 24.5959
42654.4 23.9229
42656.7 23.4931
42661.2 22.8883
42665.8 22.4172
42675.0 21.6245
42684.1 20.9253
42720.8 18.5825
42794.0 15.2491
42867.3 13.0589
42940.6 11.5449
43087.1 9.60986
43233.6 8.41949
43380.1 7.59542
43526.7 6.96936
43673.2 6.44771
43746.4 6.19855
43783.1 6.06121
43801.4 5.96725
43810.5 5.87454
43815.1 5.74971
43817.4 5.57259
43818.6 5.37602
43819.1 5.29289
43819.4 5.47152
43819.7 6.72402
43820.0 11.6299
43820.3 10.8663
43820.7 8.59277
43821.0 7.61316
43821.7 6.86675
43823.1 6.42090
43825.9 6.18046
43831.5 6.04534
43842.7 5.94809
43865.0 5.83675
43909.8 5.63314
43932.1 5.50971
43954.5 5.34039
43965.7 5.21267
43976.8 5.00565
43982.4 4.82949
43988.0 4.52608
43990.8 4.26642
43993.6 3.84732
43995.0 3.53103
43996.4 3.12915
43997.8 2.92851
43998.5 3.74503
43998.9 5.20038
43999.2 8.37900
43999.4 11.8654
43999.6 16.5445
44000.0 26.8584
44000.2 29.1981
44000.4 28.6103
44000.8 23.7783
44001.4 17.3822
44002.0 13.8097
44002.6 11.7051
44003.2 10.4062
44004.4 8.89005
44005.6 8.05643
44008.0 7.17719
44010.3 6.72102
44015.1 6.24918
44019.8 6.00097
44029.4 5.72624
44038.9 5.56033
44057.9 5.32446
44076.9 5.11201
44096.0 4.86476
44105.5 4.70944
44115.0 4.51803
44124.5 4.27376
44134.0 3.97208
44138.8 3.83303
44143.5 3.82700
44145.9 3.99596
44148.3 4.47716
44150.7 5.67761
44153.0 8.52738
44155.5 14.9785
44158.0 23.3476
44160.5 24.6904
44163.0 20.4851
44165.1 16.9662
44167.3 14.4306
44169.4 12.6507
44171.5 11.3905
44175.8 9.76425
44180.1 8.79017
44184.4 8.14837
44188.7 7.69716
44197.3 7.10647
44205.8 6.73465
44214.4 6.47718
44231.6 6.13626
44248.7 5.91259
44265.9 5.74751
44300.2 5.50388
44334.5 5.31541
44368.8 5.15114
44437.4 4.84398
44506.0 4.51944
44574.5 4.13269
44608.8 3.90063
44643.1 3.63755
44677.4 3.36014
44694.6 3.24142
44703.2 3.19468
44707.5 3.16522
44709.6 3.13080
44710.7 3.09237
44711.2 3.07655
44711.7 3.43366
44712.0 4.55081
44712.3 4.33224
44713.2 3.47004
44714.1 3.35045
44715.9 3.29077
44719.5 3.27788
44726.7 3.34183
44741.1 3.76020
44755.5 4.92687
44762.7 6.07008
44769.9 7.84448
44777.4 10.6506
44785.0 14.5823
44800.0 23.2438
44803.6 24.4160
44807.3 24.9013
44809.1 24.8519
44810.9 24.5671
44812.7 23.9816
44813.6 23.7692
44814.1 24.2899
44814.5 27.6370
44814.8 33.2998
44815.0 40.2582
44815.3 41.2671
44815.5 37.7177
44816.0 32.2266
44816.4 29.5610
44817.3 27.2549
44818.2 26.1642
44819.2 25.4762
44821.0 24.5027
44822.8 23.7314
44826.5 22.3679
44830.1 21.1127
44836.9 18.9930
44843.8 17.1855
44857.4 14.4098
44864.2 13.3509
44871.0 12.4437
44877.9 11.6072
44881.3 11.1147
44883.0 10.7396
44883.8 10.5088
44884.3 10.5960
44884.7 12.4356
44884.8 15.2878
44885.0 18.6954
44885.2 19.1744
44885.3 17.4437
44885.7 14.7000
44886.0 13.4376
44886.6 12.3516
44887.9 11.6104
44890.4 11.0757
44895.4 10.5423
44900.5 10.1538
44905.5 9.81760
44915.6 9.19468
44920.6 8.79765
44923.1 8.40483
44924.4 7.94489
44925.0 7.50699
44925.3 7.29216
44925.6 7.75887
44925.8 9.43871
44926.0 12.4204
44926.2 13.7256
44926.4 13.1840
44926.8 11.5429
44927.2 10.6716
44928.0 9.91267
44929.6 9.36727
44932.8 8.97353
44939.3 8.60878
44945.8 8.35991
44952.3 8.15248
44965.2 7.80391
44978.2 7.51157
45004.1 7.03105
45030.1 6.63355
45056.0 6.27164
45081.9 5.89226
45094.9 5.66145
45107.8 5.34483
45114.3 5.10738
45120.8 4.73372
45124.0 4.43470
45127.3 3.97426
45130.5 3.23976
45132.1 3.01745
45132.9 3.55621
45133.3 4.45131
45133.7 6.26063
45134.1 8.65677
45134.4 12.0859
45135.0 19.8674
45135.6 21.3868
45136.3 18.3911
45137.0 14.9395
45137.7 12.6294
45138.5 11.1248
45139.2 10.1019
45140.7 8.83022
45142.2 8.08175
45145.1 7.24245
45148.1 6.77681
45151.1 6.47252
45154.0 6.25126
45159.9 5.93384
45171.8 5.48991
45183.6 5.09922
45195.4 4.65213
45201.4 4.37739
45207.3 4.04976
45219.1 3.26154
45222.1 3.17502
45225.0 3.44351
45226.5 3.92713
45228.0 4.92930
45229.5 6.92382
45230.9 10.7548
45232.0 15.1604
45233.0 21.3299
45235.0 35.0335
45236.0 38.1134
45237.0 37.3571
45239.1 30.5971
45240.7 25.2902
45242.3 21.3413
45244.0 18.4794
45245.6 16.4088
45248.8 13.6731
45252.1 12.0027
45255.3 10.8891
45258.6 10.1016
45265.1 9.06852
45271.6 8.42000
45278.1 7.97497
45291.0 7.39728
45304.0 7.03259
45317.0 6.77611
45343.0 6.42792
45369.0 6.19131
45394.9 6.01191
45446.9 5.74052
45498.8 5.52690
45550.8 5.33687
45602.7 5.14415
45628.7 5.02548
45641.7 4.93219
45648.2 4.83210
45651.5 4.70055
45653.1 4.54151
45653.9 4.43476
45654.3 4.53440
45654.7 5.98138
45655.0 10.6180
45655.3 9.60274
45655.6 7.53623
45655.9 6.58958
45656.5 5.85098
45657.8 5.39601
45660.2 5.14828
45665.1 5.00132
45675.0 4.86205
45684.8 4.67727
45689.7 4.43532
45692.1 4.11946
45693.4 3.85674
45694.0 3.94851
45694.3 4.55625
45694.6 7.00129
45694.8 11.2389
45695.0 16.5670
45695.2 17.3157
45695.4 14.5443
45695.8 10.2024
45696.2 8.26472
45697.0 6.74263
45698.7 5.82464
45702.0 5.33602
45708.5 5.07015
45715.0 4.96212
45721.6 4.89270
45747.7 4.70259
45773.9 4.52519
45800.1 4.31114
45826.2 4.01440
45839.3 3.80865
45852.4 3.53672
45865.5 3.15851
45872.0 2.91038
45878.5 2.61222
45885.1 2.27216
45891.6 1.99311
45894.9 2.02718
45898.2 2.48562
45899.8 3.08628
45901.4 4.17578
45903.1 6.13505
45904.7 9.54542
45906.0 13.9734
45907.4 20.1911
45910.0 34.0835
45911.3 37.2334
45912.7 36.5094
45915.3 29.7727
45917.1 25.1928
45918.9 21.5672
45920.7 18.8132
45922.5 16.7215
45926.1 13.8467
45929.6 12.0175
45933.2 10.7745
45936.8 9.88367
45944.0 8.70267
45951.1 7.96037
45958.3 7.45221
45972.6 6.80145
45986.9 6.39956
46001.2 6.12410
46029.9 5.76387
46058.5 5.53050
46087.1 5.36023
46144.4 5.11208
46201.7 4.92106
46258.9 4.75009
46287.6 4.66364
46316.2 4.56866
46330.5 4.51226
46344.8 4.43903
46359.2 4.30493
46366.3 4.12475
46369.9 3.88673
46371.7 3.67833
46372.6 3.73606
46373.0 4.22570
46373.5 6.33398
46373.7 9.86635
46374.0 14.1734
46374.3 14.7352
46374.5 12.4302
46375.2 8.45673
46375.8 6.91208
46377.0 5.76963
46379.4 5.10433
46381.9 4.87294
46384.3 4.75442
46389.2 4.62872
46394.1 4.55884
46403.9 4.47352
46413.7 4.41465
46452.9 4.23481
46492.0 4.05327
46531.2 3.82951
46570.3 3.51817
46589.9 3.30284
46609.5 3.01941
46629.1 2.62788
46638.9 2.37297
46648.7 2.06925
46658.4 1.72797
46668.2 1.46052
46673.1 1.51080
46675.6 1.66839
46678.0 1.99354
46680.5 2.60416
46682.9 3.69369
46685.4 5.61441
46687.8 8.90559
46689.9 13.2713
46691.9 19.4024
46696.0 33.2103
46698.1 36.3718
46700.1 35.6967
46704.2 28.9913
46706.8 24.7220
46709.3 21.2412
46714.4 16.3497
46716.9 14.5789
46719.5 13.0102
46720.8 12.2011
46722.0 11.2510
46723.3 9.80760
46724.0 8.61930
46724.3 8.04343
46724.6 8.78508
46724.8 12.3707
46725.0 18.8518
46725.2 21.6576
46725.4 20.5979
46725.8 17.7381
46726.2 15.9533
46726.9 14.1080
46728.5 12.5354
46730.0 11.7266
46731.5 11.1705
46734.6 10.3743
46737.6 9.79092
46743.7 8.93864
46749.8 8.32750
46762.0 7.49356
46774.1 6.94598
46786.3 6.55672
46798.5 6.26446
46822.8 5.85148
46847.2 5.56920
46871.6 5.36027
46920.3 5.06141
46969.0 4.84592
47017.7 4.67192
47115.1 4.37551
47212.5 4.08104
47261.2 3.91152
47310.0 3.70754
47358.7 3.43780
47383.0 3.25780
47407.4 3.02405
47431.7 2.69567
47443.9 2.47020
47456.1 2.17655
47468.3 1.77486
47474.4 1.51497
47480.4 1.20558
47486.5 0.855200
47492.6 0.563856
47495.7 0.583573
47498.7 0.998299
47500.2 1.54199
47501.8 2.52614
47503.3 4.26065
47504.8 7.24559
47506.1 11.3264
47507.4 17.0427
47510.0 29.9184
47511.3 32.8915
47512.6 32.3125
47515.2 26.2854
47517.0 22.0451
47518.8 18.7082
47520.6 16.1749
47522.4 14.2509
47526.0 11.6046
47529.5 9.91629
47533.1 8.76482
47536.7 7.93602
47543.9 6.82993
47551.0 6.12858
47558.2 5.64886
47572.5 5.05821
47586.8 4.79643
47601.2 4.91397
47615.5 5.85236
47622.6 7.03509
47629.8 9.19703
47639.9 15.0438
47650.0 22.9129
47655.1 24.8035
47660.1 24.2819
47670.2 19.6594
47680.0 15.4234
47689.8 12.5765
47699.6 10.7110
47709.5 9.44164
47729.1 7.85680
47748.7 6.89651
47768.3 6.20433
47788.0 5.58424
47797.8 5.23065
47807.6 4.76745
47812.5 4.45258
47817.4 4.05811
47822.3 3.74833
47823.5 3.83981
47824.7 4.19261
47826.0 5.14830
47827.2 7.42673
47827.9 9.84640
47828.6 13.2428
47830.0 20.8690
47831.4 22.3425
47832.8 18.9873
47833.9 16.4177
47834.9 14.4291
47835.9 12.9381
47837.0 11.8161
47839.1 10.2842
47841.1 9.31015
47843.2 8.64443
47845.3 8.16260
47849.5 7.51123
47853.6 7.08675
47857.8 6.78463
47866.1 6.36709
47874.4 6.06782
47882.8 5.80156
47886.9 5.64995
47891.1 5.44477
47895.3 5.05646
47897.3 4.64819
47898.4 4.44498
47898.9 4.69039
47899.4 6.71828
47899.7 10.3674
47900.0 15.2085
47900.3 16.2441
47900.6 14.1636
47901.3 10.1960
47902.0 8.55261
47903.4 7.27757
47904.8 6.76763
47906.1 6.49326
47908.9 6.19807
47911.7 6.03468
47917.3 5.84440
47922.8 5.72523
47933.9 5.56426
47945.1 5.44773
47967.3 5.27073
47989.5 5.13015
48034.0 4.88442
48056.2 4.72617
48067.3 4.55842
48072.9 4.33599
48075.7 4.07805
48077.1 3.94834
48077.7 4.20142
48078.4 6.64918
48078.7 10.2455
48079.0 14.6906
48079.3 15.3289
48079.6 12.9849
48080.0 9.73839
48080.5 8.08004
48081.5 6.64934
48083.3 5.73617
48085.2 5.40567
48087.1 5.23712
48090.8 5.06217
48094.6 4.96907
48102.1 4.86348
48109.6 4.79831
48124.5 4.70784
48139.5 4.63682
48199.5 4.38017
48229.5 4.22375
48244.5 4.12427
48259.5 3.99856
48274.4 3.82838
48289.4 3.58084
48304.4 3.25867
48308.2 3.24035
48311.9 3.41088
48313.8 3.68640
48315.7 4.24993
48317.5 5.38966
48319.4 7.67874
48321.7 13.3450
48324.0 20.8479
48326.3 22.2064
48328.6 18.2282
48331.0 14.3334
48333.4 11.7577
48335.7 10.0983
48338.1 8.99110
48340.5 8.21090
48342.9 7.64258
48347.6 6.87375
48352.4 6.38253
48357.1 6.04375
48366.6 5.60281
48376.1 5.31835
48385.6 5.09805
48395.1 4.85177
48399.9 4.60078
48402.3 4.28960
48403.4 4.00313
48404.0 3.99787
48404.3 4.44558
48404.6 6.43454
48404.8 9.94975
48405.0 14.5996
48405.2 15.3947
48405.4 13.1884
48405.7 9.91039
48406.0 8.26708
48406.7 6.85298
48408.0 5.93889
48410.7 5.42802
48416.0 5.14060
48426.6 4.94711
48437.2 4.84680
48447.8 4.77530
48469.0 4.67016
48490.1 4.59097
48532.5 4.47024
48574.9 4.37455
48659.7 4.20185
48680.9 4.14953
48702.1 4.07679
48712.7 4.01969
48723.3 3.92252
48728.6 3.83581
48733.9 3.67959
48736.5 3.53986
48739.2 3.29962
48741.8 2.81784
48743.1 2.50421
48743.8 2.78661
48744.1 3.68354
48744.4 6.52006
48744.7 12.1090
48745.0 19.6328
48745.3 20.9325
48745.6 17.3824
48745.9 13.1770
48746.3 10.6552
48747.0 8.09904
48747.7 6.92095
48748.4 6.27309
48749.8 5.58043
48751.2 5.22293
48754.0 4.86019
48756.8 4.67687
48762.5 4.49071
48768.1 4.39466
48779.4 4.29236
48790.7 4.23486
48813.2 4.16477
48835.8 4.11738
48880.9 4.04606
48926.1 3.98724
49106.6 3.78682
49287.1 3.59328
49332.2 3.54010
49377.3 3.47943
49399.9 3.44199
49422.4 3.39102
49433.7 3.35245
49445.0 3.28882
49450.6 3.23308
49456.3 3.13289
49461.9 2.88214
49464.7 2.52977
49466.1 2.20708
49466.9 2.24722
49467.2 2.84611
49467.6 5.43758
49467.8 10.1008
49468.0 15.8693
49468.2 16.8161
49468.5 13.9574
49469.0 8.80896
49469.5 6.77087
49470.5 5.24037
49472.6 4.34089
49474.7 4.02826
49476.8 3.87017
49480.9 3.70956
49485.1 3.62619
49493.4 3.53211
49497.6 3.49114
49499.7 3.45748
49500.7 3.42623
49501.7 3.63916
49502.0 4.36863
49502.3 4.23055
49503.2 3.65097
49504.2 3.57152
49506.1 3.52365
49510.0 3.48961
49517.8 3.45646
49533.4 3.41549
49564.5 3.35834
49626.7 3.26738
49751.1 3.09480
49875.6 2.91173
49937.8 2.82278
50000.0 2.75995
50049.4 2.77735
50098.9 2.99146
50123.6 3.29145
50148.3 3.89112
50173.0 5.11253
50197.7 7.65946
50223.9 13.1319
50250.0 20.6364
50263.1 22.5515
50276.2 22.0939
50302.3 17.5062
50323.6 13.8947
50344.9 11.3268
50366.3 9.57128
50387.6 8.34930
50430.2 6.81636
50472.8 5.92189
50515.5 5.34438
50558.1 4.94219
50643.4 4.41541
50728.7 4.07868
50813.9 3.83741
50984.5 3.49604
51325.5 3.03920
51666.6 2.68759
52007.7 2.38372
52348.8 2.14903
52519.3 2.09732
52689.8 2.16358
52775.1 2.29748
52860.4 2.59267
52945.6 3.30631
52988.3 4.06743
53030.9 5.44016
53111.0 8.94737
53191.1 6.28441
53253.8 5.09811
53316.6 5.04495
53442.0 6.56756
53603.0 11.2309
53764.0 17.8794
53844.5 19.6470
53925.0 19.0138
54086.0 13.3245
54255.9 7.46657
54425.9 3.60498
54510.8 2.35323
54553.3 1.93727
54595.8 1.72357
54638.3 1.81030
54680.7 2.37499
54723.2 3.73424
54765.7 6.42430
54799.3 9.98750
54832.9 15.1389
54900.0 27.5785
54943.0 31.4341
54986.0 30.4210
55000.0 29.5356
55000.0 29.5592
55000.1 29.5545
55000.2 29.5498
55000.3 29.5410
55000.6 29.5228
55001.1 29.4863
55002.2 29.4136
55004.3 29.2672
55008.6 28.9704
55017.2 28.3723
55034.3 27.2074
55100.7 24.1213
55167.2 23.6763
55300.0 25.9791
55457.0 25.1235
55614.0 21.1584
55774.4 17.2061
55934.9 13.8639
56015.1 12.2660
56055.2 11.4351
56095.3 10.5592
56135.4 9.63407
56175.5 8.74454
56195.6 8.44326
56215.6 8.48463
56235.7 9.42297
56255.7 12.6176
56266.8 16.2430
56277.9 21.6262
56288.9 28.2113
56300.0 34.0368
56322.2 36.9288
56344.3 32.4021
56365.4 27.8334
56386.4 24.4049
56407.5 21.9320
56428.5 20.1142
56470.6 17.6503
56512.7 16.0546
56554.9 14.9211
56597.0 14.0598
56681.2 12.8021
56765.4 11.8917
56849.6 11.1758
57018.0 10.0658
57186.5 9.18249
57354.9 8.38375
57439.1 7.96676
57523.3 7.47289
57565.4 7.14699
57586.5 6.93971
57607.5 6.67882
57628.6 6.32381
57639.1 6.08683
57649.7 5.78690
57660.2 5.39526
57670.7 4.88852
57676.0 4.61450
57681.2 4.42979
57686.5 4.70364
57689.1 5.36720
57691.8 6.84361
57693.8 8.95038
57695.9 12.0895
57697.9 15.9345
57700.0 19.3433
57704.1 21.1780
57708.3 18.8346
57710.8 17.2017
57713.3 15.8113
57718.4 13.7641
57723.5 12.4137
57728.5 11.4883
57733.6 10.8206
57738.6 10.3201
57748.8 9.61880
57758.9 9.14794
57769.0 8.80660
57789.3 8.33414
57809.5 8.00930
57829.8 7.76110
57870.3 7.37958
57951.3 6.79164
58032.3 6.24480
58113.4 5.63479
58153.9 5.27968
58194.4 4.87833
58234.9 4.43339
58275.4 4.00830
58295.7 3.88638
58315.9 3.96520
58336.2 4.52322
58356.4 6.15681
58369.8 8.29973
58383.2 11.5345
58396.6 15.4896
58410.0 18.9622
58436.8 20.8146
58463.6 18.4840
58483.1 16.5719
58502.5 14.9840
58522.0 13.7275
58541.4 12.7364
58580.3 11.2972
58619.2 10.3067
58658.1 9.57334
58697.0 8.99460
58774.9 8.08204
58852.7 7.28505
58891.6 6.86540
58930.5 6.38697
58969.4 5.79085
58988.8 5.41835
59008.3 4.97150
59027.8 4.43009
59047.2 3.80983
59056.9 3.52706
59066.7 3.39040
59076.4 3.70331
59081.2 4.23580
59086.1 5.21581
59092.1 7.32362
59098.1 10.6217
59104.0 14.6838
59110.0 18.1765
59122.0 20.0755
59133.9 18.0932
59142.7 16.4189
59151.4 15.0133
59160.2 13.8914
59168.9 12.9992
59186.5 11.6943
59204.0 10.7927
59221.5 10.1270
59239.0 9.60674
59274.0 8.80684
59309.1 8.14246
59326.6 7.80658
59344.1 7.43173
59361.6 6.96757
59370.4 6.67403
59379.1 6.31393
59387.9 5.85776
59396.6 5.29352
59401.0 5.01768
59405.4 4.91199
59407.6 5.07053
59409.8 5.58242
59412.0 6.82694
59414.2 9.54175
59415.6 12.7940
59417.1 17.5004
59420.0 28.6373
59422.9 31.5341
59425.9 27.1467
59427.7 24.1265
59429.5 21.6066
59433.1 18.0268
59436.8 15.7677
59440.4 14.2707
59444.0 13.2175
59447.7 12.4438
59455.0 11.3893
59462.2 10.7030
59469.5 10.2199
59484.1 9.57604
59498.6 9.15766
59513.2 8.85616
59542.3 8.43329
59571.4 8.13301
59600.5 7.89415
59658.6 7.50045
59716.8 7.13055
59745.9 6.92464
59775.0 6.67897
59804.1 6.35145
59818.7 6.13014
59833.2 5.84083
59847.8 5.43841
59855.1 5.17055
59862.3 4.83981
59869.6 4.43246
59876.9 3.97473
59880.5 3.78638
59884.2 3.75107
59887.8 4.16278
59891.4 5.74508
59893.6 7.76712
59895.7 10.8577
59897.9 14.6865
59900.0 18.0415
59904.3 19.9378
59908.6 17.9266
59912.6 15.7920
59916.7 14.1502
59920.7 12.9508
59924.8 12.0667
59932.9 10.8746
59941.0 10.1214
59949.0 9.60605
59957.1 9.23158
59973.3 8.72209
59989.5 8.38828
60005.7 8.14976
60038.0 7.82393
60070.4 7.60401
60102.8 7.43983
60167.5 7.19960
60232.2 7.02332
60297.0 6.88823
60329.3 6.83983
60361.7 6.82607
60377.9 6.85985
60386.0 6.90527
60394.0 6.99329
60402.1 7.17412
60406.2 7.33765
60410.2 7.59797
60414.3 8.04303
60418.3 8.87057
60420.3 9.56953
60422.4 10.6038
60424.4 12.1805
60426.4 14.5891
60429.2 19.4904
60432.0 22.9135
60434.8 19.8170
60437.6 14.9432
60439.8 12.3622
60441.9 10.7038
60444.0 9.62429
60446.2 8.90659
60450.5 8.05171
60454.8 7.58963
60459.0 7.31182
60463.3 7.13212
60471.9 6.91837
60480.5 6.79805
60489.0 6.72100
60506.2 6.62566
60540.5 6.52002
60574.7 6.45018
60643.3 6.34145
60711.9 6.24821
60849.0 6.08124
60986.1 5.92864
61534.6 5.37867
61808.8 5.11008
62083.1 4.82481
62220.2 4.66868
62357.3 4.49734
62425.9 4.40395
62494.4 4.30506
62563.0 4.21221
62580.1 4.20289
62597.3 4.22985
62605.8 4.29036
62614.4 4.46717
62618.7 4.68621
62623.0 5.17055
62625.1 5.65720
62627.3 6.51668
62629.4 8.18078
62630.5 9.58960
62631.5 11.6134
62633.3 16.2854
62635.0 19.5485
62636.7 16.6300
62638.5 12.0190
62640.4 8.70543
62642.4 6.98083
62644.4 6.03391
62646.4 5.47264
62650.3 4.87622
62654.2 4.58314
62662.1 4.31048
62670.0 4.18559
62685.8 4.06311
62701.5 3.99359
62733.1 3.89428
62764.6 3.80727
62827.7 3.62833
62890.8 3.42407
62953.9 3.18585
63016.9 2.93609
63048.5 2.85663
63080.0 2.92578
63111.6 3.49017
63127.3 4.26190
63143.1 5.74014
63154.8 7.57995
63166.6 10.2356
63190.0 16.6832
63213.5 18.4951
63236.9 15.7219
63261.9 12.6266
63287.0 10.5065
63312.0 9.10912
63337.0 8.15438
63362.1 7.47133
63387.1 6.96151
63437.1 6.25187
63487.2 5.77710
63537.2 5.43124
63637.4 4.94249
63737.5 4.59035
63837.6 4.30302
64037.8 3.80557
64238.0 3.32290
64338.1 3.07148
64438.3 2.81596
64538.4 2.58067
64638.5 2.45857
64688.5 2.52679
64738.6 2.80287
64788.7 3.49982
64838.7 5.03576
64871.5 6.81502
64904.4 9.39596
64970.0 15.6565
65002.8 17.3870
65035.7 17.3733
65101.3 14.4600
65148.4 12.0394
65195.5 9.89299
65219.1 8.86955
65242.6 7.80451
65254.4 7.24600
65266.2 6.73787
65272.1 6.60203
65278.0 6.74353
65283.9 7.66031
65289.8 10.7848
65294.9 17.7354
65300.0 27.8493
65305.1 30.7374
65310.3 26.3240
65313.5 23.2241
65316.7 20.6680
65323.2 17.0798
65329.6 14.8405
65336.0 13.3557
65342.5 12.3037
65348.9 11.5189
65361.8 10.4152
65374.7 9.65837
65387.6 9.09301
65413.4 8.27155
65439.2 7.67374
65465.0 7.19869
65516.6 6.45383
65619.7 5.36024
65722.9 4.49286
65826.0 3.71630
65929.2 3.02302
65980.8 2.76841
66032.4 2.69257
66083.9 3.03125
66135.5 4.28066
66171.6 6.12328
66207.8 8.99711
66243.9 12.5689
66280.0 15.7446
66352.3 17.6535
66424.5 15.8227
66480.0 14.1297
66535.6 12.7074
66591.1 11.5796
66646.7 10.6903
66702.2 9.98309
66757.7 9.42372
66785.5 9.20380
66799.4 9.11766
66813.3 9.06093
66827.2 9.06455
66834.1 9.11404
66841.0 9.22972
66848.0 9.47833
66854.9 10.0342
66858.4 10.5657
66861.9 11.4459
66865.3 12.9758
66868.8 15.6931
66872.4 20.1305
66876.0 23.2449
66879.6 20.4390
66883.2 15.9987
66887.1 12.9553
66890.9 11.2919
66894.8 10.3452
66898.6 9.76718
66902.4 9.38740
66906.3 9.12356
66914.0 8.78456
66921.7 8.57437
66929.4 8.42826
66944.8 8.22769
66960.1 8.08470
66975.5 7.96910
67006.3 7.77823
67067.8 7.47065
67129.4 7.21335
67252.5 6.78561
67375.5 6.43357
67621.7 5.86411
67867.9 5.39316
68114.1 4.96083
68360.2 4.51388
68483.3 4.25732
68544.9 4.10951
68606.4 3.93779
68667.9 3.72289
68698.7 3.58626
68729.5 3.41489
68760.2 3.18308
68775.6 3.02874
68791.0 2.83325
68806.4 2.57712
68821.8 2.24501
68829.5 2.07268
68837.2 2.00266
68841.0 2.11745
68844.9 2.52022
68848.7 3.62640
68850.6 4.72514
68852.6 6.47393
68854.4 9.10207
68856.3 12.8758
68860.0 22.3292
68861.9 25.1499
68863.7 25.2462
68867.5 20.9087
68870.1 17.4856
68872.8 14.8113
68875.5 12.8179
68878.1 11.3433
68883.4 9.36536
68888.8 8.14150
68894.1 7.32186
68899.4 6.74132
68910.1 5.97539
68920.7 5.49323
68931.4 5.15975
68952.7 4.72104
68974.0 4.43545
68995.3 4.22602
69037.9 3.91774
69080.5 3.67780
69123.1 3.46599
69208.3 3.06212
69293.5 2.63735
69378.7 2.19059
69421.3 2.00413
69463.9 1.94912
69506.5 2.29742
69527.8 2.82413
69549.1 3.79476
69570.8 5.47722
69592.6 8.03618
69636.0 14.2555
69679.5 16.1614
69722.9 14.2437
69772.3 11.7636
69821.6 9.98838
69871.0 8.77358
69920.3 7.91434
70019.0 6.79128
70117.7 6.08423
70216.4 5.58967
70315.1 5.22659
70364.5 5.09237
70413.8 5.01741
70438.5 5.03321
70463.2 5.14549
70475.5 5.28237
70487.8 5.53297
70500.2 6.00179
70512.5 6.88292
70524.8 8.29750
70537.0 9.28236
70549.3 8.37700
70561.5 6.95393
70572.2 6.10330
70582.9 5.57396
70593.7 5.23644
70604.4 5.01006
70625.8 4.72935
70647.2 4.55972
70690.1 4.34965
70732.9 4.20728
70818.6 3.99247
70904.4 3.82056
70990.1 3.68792
71075.8 3.64510
71118.6 3.72326
71161.5 4.01344
71182.9 4.36107
71204.4 5.04108
71225.8 6.49167
71236.5 7.81476
71247.2 9.82543
71262.6 14.0768
71278.0 17.0627
71293.4 14.4180
71308.8 10.2246
71321.7 7.82335
71334.6 6.31670
71347.5 5.35901
71360.4 4.72403
71386.1 3.96327
71411.9 3.53405
71463.5 3.06093
71515.0 2.78441
71618.1 2.41348
71721.3 2.12616
71824.4 1.88821
71927.5 1.75387
71979.0 1.80010
72030.6 2.07571
72056.4 2.42158
72082.2 3.09360
72107.9 4.50401
72120.8 5.79640
72133.7 7.84440
72151.9 13.0092
72170.0 21.2464
72179.1 24.2071
72188.2 23.8129
72206.3 15.9635
72218.0 11.2391
72229.7 8.02311
72241.4 5.92618
72253.0 4.54007
72276.4 2.93217
72299.8 2.09688
72323.1 1.62588
72346.5 1.35368
72393.2 1.15116
72439.9 1.27045
72486.7 1.71204
72533.4 2.57567
72580.1 4.03706
72632.6 6.67718
72685.1 10.6068
72790.0 20.2447
72842.5 23.0032
72895.0 23.2593
72999.9 19.6678
73112.9 15.3121
73226.0 12.3146
73339.0 10.6669
73452.0 10.5197
73590.0 13.2976
73728.0 18.3607
73866.0 19.6419
74004.0 17.2821
74140.4 14.5956
74276.9 12.2870
74345.1 11.1615
74413.3 9.84736
74447.4 8.98014
74464.4 8.43779
74481.5 7.78024
74498.6 6.95887
74515.6 5.92915
74532.7 4.79155
74541.2 4.42916
74549.7 4.67680
74557.3 6.00901
74564.9 8.83617
74572.4 12.5962
74580.0 15.7169
74595.2 17.7085
74610.3 16.9681
74620.6 16.2199
74630.9 15.5255
74651.5 14.4079
74672.1 13.5885
74692.7 12.9685
74733.9 12.0825
74775.1 11.4615
74857.5 10.6001
74939.9 9.98958
75104.7 9.10564
75269.4 8.43831
75434.2 7.86717
75599.0 7.30240
75681.4 6.97189
75722.6 6.77192
75763.8 6.52639
75805.0 6.19647
75825.6 5.97540
75846.2 5.69118
75866.8 5.30737
75877.1 5.06143
75887.4 4.77047
75908.0 4.14137
75913.1 4.09600
75918.3 4.28321
75923.4 5.05421
75928.6 7.24694
75931.4 9.66702
75934.3 13.2875
75940.0 22.4340
75945.7 25.5905
75951.5 22.5006
75955.3 19.9972
75959.1 17.9003
75962.9 16.2480
75966.8 14.9588
75974.4 13.1353
75982.1 11.9391
75989.8 11.1071
75997.4 10.4990
76012.7 9.67330
76028.1 9.13880
76043.4 8.76283
76074.0 8.26282
76104.6 7.93754
76135.3 7.70260
76196.5 7.37123
76257.8 7.13427
76319.1 6.94567
76441.6 6.64292
76686.7 6.16361
76931.8 5.73695
77176.9 5.29598
77299.4 5.04781
77421.9 4.75983
77544.5 4.39787
77605.8 4.16803
77667.0 3.88353
77728.3 3.51339
77758.9 3.28150
77789.6 3.00958
77850.8 2.38823
77866.2 2.28894
77881.5 2.32032
77896.8 2.66844
77912.1 3.73478
77922.3 5.18390
77932.6 7.43950
77953.0 13.0884
77973.5 15.0390
77993.9 13.5313
78009.1 12.1079
78024.2 10.9067
78039.4 9.95605
78054.5 9.21040
78084.8 8.14029
78115.1 7.41895
78145.4 6.89890
78175.7 6.50260
78236.4 5.92354
78297.0 5.49970
78357.6 5.15431
78478.8 4.55750
78600.0 3.95434
78660.6 3.60865
78721.3 3.20638
78781.9 2.72207
78842.5 2.14502
78872.8 1.84971
78903.1 1.63150
78933.4 1.70842
78948.6 2.01849
78963.7 2.67331
78981.3 4.09718
78998.9 6.42825
79016.4 9.44164
79034.0 12.2230
79069.2 14.1768
79104.3 12.9461
79135.0 11.5316
79165.6 10.3581
79196.3 9.44872
79226.9 8.74424
79288.2 7.74070
79349.5 7.06211
79410.8 6.56725
79472.1 6.18427
79594.7 5.61182
79839.9 4.83010
80085.2 4.24742
80330.4 3.77243
80575.6 3.47177
80820.8 3.73281
80943.4 4.45127
81066.0 6.05826
81159.5 8.28388
81253.0 11.6762
81440.0 20.3946
81627.0 23.5597
81814.0 20.7151
81978.7 17.6509
82143.3 15.2545
82308.0 13.4967
82472.6 12.1980
82801.9 10.4468
83131.2 9.33083
83460.6 8.55308
83789.9 7.97168
83954.5 7.72975
84119.2 7.51236
84201.5 7.41280
84283.8 7.32466
84325.0 7.29374
84366.2 7.30023
84386.7 7.35403
84397.0 7.41864
84407.3 7.54155
84417.6 7.79555
84422.8 8.02873
84427.9 8.40673
84433.0 9.06886
84438.2 10.3453
84440.8 11.4600
84443.3 13.1649
84445.9 15.8697
84448.5 20.1949
84451.7 28.4922
84455.0 34.4102
84458.3 29.4241
84461.5 21.3609
84463.6 17.6094
84465.7 15.0062
84470.0 11.9176
84474.2 10.3097
84478.4 9.39033
84482.6 8.81765
84486.8 8.43829
84495.2 7.98186
84503.6 7.72518
84512.0 7.56469
84528.8 7.37749
84545.7 7.27138
84562.5 7.20150
84596.2 7.11002
84663.5 6.99670
84730.8 6.91343
84865.4 6.77472
85000.0 6.65138
85212.8 6.47198
85425.5 6.30476
85531.9 6.22493
85638.3 6.14966
85691.5 6.11758
85744.7 6.10199
85771.3 6.11689
85797.9 6.19210
85811.2 6.30185
85824.5 6.57092
85831.1 6.86203
85837.8 7.41905
85841.1 7.89807
85844.4 8.62068
85847.8 9.74491
85851.1 11.5009
85855.5 15.0310
85860.0 17.5521
85864.5 15.4509
85868.9 12.0472
85871.7 10.5101
85874.5 9.42521
85880.0 8.11288
85885.6 7.41430
85891.1 7.00750
85896.7 6.75142
85902.2 6.57976
85913.3 6.36986
85924.4 6.24909
85935.5 6.17157
85957.7 6.07740
86002.1 5.98006
86046.5 5.92179
86135.3 5.83761
86224.1 5.76714
86401.6 5.63755
86579.2 5.51206
86756.7 5.38624
86934.3 5.25751
87111.9 5.12491
87156.2 5.09403
87200.6 5.07474
87222.8 5.08392
87245.0 5.14985
87256.1 5.25826
87261.7 5.36704
87267.2 5.55739
87272.8 5.92330
87275.6 6.24197
87278.3 6.73431
87281.1 7.54765
87283.9 8.98434
87286.6 11.7578
87288.0 14.1068
87289.4 17.4465
87291.7 25.4417
87294.0 31.1531
87296.3 26.3969
87298.6 18.6963
87300.1 14.9928
87301.7 12.4601
87304.7 9.50404
87307.8 7.98159
87310.9 7.12007
87313.9 6.58624
87317.0 6.23524
87323.1 5.81376
87329.2 5.57869
87335.4 5.43280
87347.6 5.26552
87372.2 5.11710
87396.7 5.05207
87421.2 5.02673
87445.7 5.05885
87458.0 5.13687
87470.2 5.36319
87476.4 5.64073
87482.5 6.24938
87485.6 6.85137
87488.6 7.89923
87491.7 9.88876
87494.8 13.8490
87497.4 19.5315
87500.0 23.5970
87502.6 20.1838
87505.3 14.6435
87507.8 11.0769
87510.3 9.02267
87512.9 7.80258
87515.4 7.04383
87520.5 6.19676
87525.6 5.76384
87530.7 5.51288
87535.8 5.35352
87546.0 5.16751
87566.3 4.99820
87586.7 4.91720
87627.4 4.82826
87668.1 4.76974
87749.5 4.67684
87830.9 4.59274
87993.7 4.42571
88156.5 4.24863
88319.3 4.05436
88482.1 3.83644
88563.5 3.71610
88644.9 3.58635
88726.3 3.44669
88767.0 3.39190
88777.2 3.40153
88787.3 3.47277
88792.4 3.59007
88797.5 3.91128
88800.1 4.30022
88802.6 5.14191
88803.9 5.96352
88805.2 7.37964
88806.4 10.0041
88807.7 15.1367
88808.9 22.7827
88810.0 28.2683
88811.2 23.7836
88812.3 16.4434
88813.6 11.2537
88814.8 8.44433
88816.1 6.86528
88817.4 5.91292
88819.9 4.88362
88822.5 4.37168
88827.5 3.89129
88832.6 3.67557
88842.8 3.47982
88852.9 3.38674
88873.2 3.28566
88893.5 3.22032
88934.1 3.11845
88974.7 3.02834
89055.8 2.85936
89137.0 2.70743
89218.2 2.59901
89299.4 2.59994
89380.5 2.85977
89461.7 3.70085
89515.5 4.85034
89569.4 6.66541
89677.0 11.4363
89784.7 13.1780
89838.5 12.4905
89865.4 11.8983
89878.9 11.5338
89892.3 11.1010
89902.9 10.6832
89913.5 10.1611
89924.1 9.57876
89929.5 9.63143
89932.1 10.2128
89934.8 12.0188
89937.4 16.6085
89940.0 23.9813
89941.3 26.4910
89942.6 26.9825
89945.3 24.2916
89947.7 21.2823
89950.1 19.0189
89952.5 17.4229
89954.9 16.2808
89959.7 14.7924
89964.5 13.8745
89969.3 13.2486
89974.1 12.7886
89983.6 12.1409
89993.2 11.6860
90002.8 11.3335
90022.0 10.7915
90060.4 10.0061
90098.8 9.40317
90175.6 8.46398
90252.4 7.73285
90405.9 6.61274
90559.5 5.72196
90713.0 4.90179
90789.8 4.48378
90866.6 4.04906
90943.4 3.60586
91020.2 3.22467
91058.5 3.13702
91096.9 3.24143
91135.3 3.76965
91173.7 5.20778
91199.3 7.08206
91224.9 9.99587
91276.0 17.7943
91327.2 20.9657
91378.3 18.5624
91420.1 15.9913
91462.0 13.8932
91503.8 12.2925
91545.7 11.0651
91629.3 9.31020
91713.0 8.06455
91796.7 7.04158
91880.4 6.07459
91922.2 5.58686
91964.0 5.13198
92005.9 4.89691
92047.7 5.63428
92065.8 6.73428
92083.9 8.58564
92101.9 11.0636
92120.0 13.4682
92156.2 15.3541
92192.3 14.3213
92223.3 13.0633
92254.2 11.9960
92285.2 11.1570
92316.2 10.4997
92378.1 9.55106
92440.0 8.90013
92501.9 8.42066
92563.9 8.04771
92687.7 7.49117
92811.5 7.07999
92935.4 6.75044
92997.3 6.60617
93059.2 6.47600
93090.2 6.42244
93121.2 6.39971
93136.6 6.43079
93152.1 6.57673
93159.9 6.78945
93163.7 6.98902
93167.6 7.31734
93171.5 7.89742
93175.3 9.02805
93177.3 10.0198
93179.2 11.5395
93181.1 13.9719
93183.1 17.8540
93185.5 25.3737
93188.0 30.7780
93190.5 26.3683
93192.9 19.1645
93194.6 15.6958
93196.2 13.3030
93199.5 10.5130
93202.8 9.07047
93206.1 8.25024
93209.4 7.73944
93212.7 7.40144
93219.3 6.99178
93225.9 6.75856
93232.5 6.61056
93245.6 6.43323
93272.0 6.25642
93298.3 6.15643
93351.0 6.02233
93403.7 5.92038
93456.4 5.83932
93509.0 5.80069
93535.4 5.83218
93548.5 5.88406
93561.7 5.98982
93574.9 6.21158
93581.5 6.41205
93588.1 6.72850
93594.6 7.25824
93601.2 8.20887
93607.8 10.0760
93611.1 11.6689
93614.4 13.9730
93619.7 19.3453
93625.0 23.2248
93630.3 20.0259
93635.6 14.7770
93639.3 12.1696
93643.0 10.4038
93646.7 9.21059
93650.4 8.38761
93657.8 7.36931
93665.2 6.79567
93672.6 6.44019
93680.0 6.20381
93694.8 5.91304
93709.6 5.74159
93724.4 5.62659
93753.9 5.47434
93783.5 5.36840
93813.1 5.28233
93872.2 5.13398
93990.6 4.85437
94108.9 4.54330
94227.2 4.15303
94286.3 3.90661
94345.5 3.60755
94404.6 3.23687
94463.8 2.78628
94493.4 2.55249
94523.0 2.37611
94552.5 2.42728
94567.3 2.66519
94582.1 3.17607
94598.8 4.26910
94615.6 6.08420
94632.3 8.51278
94649.0 10.8896
94682.5 12.8303
94715.9 11.8995
94745.8 10.6717
94775.7 9.64368
94805.6 8.85033
94835.6 8.23927
94895.4 7.37467
94955.2 6.79489
95015.0 6.38314
95074.8 6.10848
95104.7 6.05077
95134.7 6.13410
95149.6 6.31102
95164.6 6.72225
95172.0 7.10984
95179.5 7.72986
95187.0 8.74813
95194.5 10.4220
95203.7 13.6087
95213.0 15.9029
95222.3 13.9988
95231.5 10.8901
95238.0 9.34111
95244.4 8.28240
95257.3 7.04893
95270.1 6.40670
95283.0 6.03117
95308.7 5.62587
95334.4 5.42711
95360.1 5.34416
95385.9 5.37849
95411.6 5.60245
95437.3 6.19374
95483.0 7.81271
95528.7 5.93011
95563.2 4.84694
95597.7 4.26996
95632.2 3.90310
95666.7 3.64914
95701.2 3.50758
95735.7 3.56264
95770.2 4.05128
95804.7 5.54439
95824.8 7.30064
95844.9 10.0175
95885.0 17.4287
95925.2 20.6552
95965.3 18.3656
96003.4 15.5084
96041.6 13.3249
96079.7 11.7729
96117.9 10.6555
96194.1 9.18611
96270.4 8.26701
96346.7 7.62685
96422.9 7.13838
96461.1 6.92812
96499.2 6.73358
96537.3 6.57267
96546.9 6.56329
96556.4 6.62975
96561.2 6.76037
96565.9 7.12368
96568.3 7.55606
96570.7 8.45640
96571.9 9.29639
96573.1 10.6735
96574.3 13.0502
96575.5 17.2486
96576.7 24.3460
96578.0 29.4406
96579.3 25.3130
96580.5 18.5714
96581.7 14.2961
96582.9 11.7633
96584.1 10.2337
96585.3 9.26909
96587.7 8.16329
96590.0 7.58734
96594.8 7.02440
96599.5 6.75894
96609.0 6.50175
96618.5 6.36595
96637.5 6.19522
96656.5 6.06438
96694.4 5.81973
96732.4 5.54606
96770.4 5.19105
96789.4 4.95582
96808.3 4.65464
96827.3 4.24892
96846.3 3.68096
96865.3 2.97544
96870.0 2.86876
96874.8 2.91934
96879.5 3.34674
96884.3 4.62288
96887.5 6.37344
96890.6 9.14570
96897.0 16.6175
96903.4 19.8432
96909.7 18.0613
96914.8 16.0365
96919.9 14.3391
96924.9 13.0283
96930.0 12.0251
96940.1 10.6337
96950.2 9.73523
96960.3 9.11430
96970.5 8.66120
96990.7 8.04448
97010.9 7.64173
97031.2 7.35548
97071.6 6.96870
97112.1 6.71182
97152.6 6.52299
97233.5 6.25194
97314.5 6.05569
97395.4 5.89942
97557.3 5.65187
97881.1 5.27844
98204.9 4.97335
98852.4 4.41829
99500.0 3.81932
99500.0 3.82259
99560.9 3.53153
99649.9 3.38095
99739.0 3.16178
99828.2 3.20448
99917.5 2.80999
100000 2.81960
100007 2.82041
100097 2.81907
100186 2.85670
100265 2.75544
100332 2.60493
100400 1.92935
100467 2.64592
100535 3.17553
100603 3.09828
100670 3.33953
100738 3.60313
100806 5.20114
100874 8.48654
100942 11.5264
101010 9.66193
101078 6.44255
101147 7.09002
101215 11.6891
101283 16.1645
101352 15.7077
101420 14.2684
101489 12.9894
101558 12.2250
101626 11.0385
101695 9.60382
101764 7.94396
101833 7.48548
101902 7.62357
101971 8.45171
102040 8.44290
102109 6.82895
102179 6.08675
102248 5.44877
102317 6.64371
102387 7.39525
102457 8.56413
102526 7.50899
102596 5.25558
102666 5.05622
102736 4.30210
102805 4.45183
102875 3.76066
102946 3.39691
103016 3.28512
103086 3.30752
103156 4.28150
103227 4.97199
103297 3.92374
103368 2.86645
103438 2.80483
103509 3.05718
103579 3.31565
103650 4.68056
103721 9.59242
103792 14.3002
103863 14.5537
103934 12.3269
104005 10.1920
104077 9.19867
104148 8.66299
104219 7.34358
104291 6.28668
104362 6.03318
104434 5.28545
104506 4.90326
104577 5.12353
104649 4.44628
104721 4.03252
104793 3.30622
104865 3.68060
104937 5.03257
105009 8.70744
105082 10.5141
105154 8.71400
105226 7.14886
105299 6.22772
105371 5.85125
105456 5.11767
105553 4.38115
105650 4.88555
105747 4.35074
105845 4.29032
105942 4.14363
106040 3.36890
106138 3.28439
106236 3.12462
106334 2.39663
106432 3.09645
106530 2.75693
106629 1.96817
106727 1.92400
106826 1.78203
106925 1.56124
107012 2.85550
107086 3.46579
107161 2.68406
107235 4.96686
107310 12.0784
107384 16.9211
107459 17.4016
107534 16.9442
107609 15.3572
107684 13.8352
107759 11.3632
107834 8.90567
107909 7.84354
107984 6.81597
108060 5.74656
108135 4.91028
108211 4.44374
108286 3.49965
108362 3.15111
108438 2.90847
108513 3.07429
108589 5.35376
108665 9.87010
108741 14.9456
108818 15.4689
108907 14.3492
109008 12.9098
109110 11.1930
109212 10.3784
109315 9.37088
109417 8.41837
109519 7.73994
109622 7.17266
109725 7.19138
109828 7.15813
109931 6.90380
110034 6.23995
110137 7.50048
110241 7.67811
110345 6.82518
110448 6.56350
110552 5.89525
110657 6.53706
110761 6.14876
110865 6.13960
110970 5.94650
111074 6.00094
111179 5.86632
111284 6.54227
111389 6.00631
111495 5.36074
111600 4.92095
111706 4.94245
111811 4.95959
111904 5.89552
111984 7.57074
112063 9.39217
112143 6.97107
112223 5.53631
112302 5.74070
112382 5.08766
112489 5.25763
112623 5.01472
112756 4.76600
112891 4.60879
113025 4.90843
113159 5.39578
113294 4.85630
113429 4.68013
113564 4.19569
113700 4.16696
113824 4.76885
113897 4.63816
113965 4.94522
114033 4.58455
114101 3.92014
114169 3.77547
114238 3.68882
114306 3.85922
114374 2.98710
114443 3.55817
114511 3.12972
114566 3.65314
114607 3.65618
114649 4.78140
114690 5.60529
114731 5.98156
114772 6.94293
114814 8.45876
114855 10.0000
114896 9.98091
114937 9.02188
114979 9.42232
115034 7.86865
115103 7.73757
115172 6.81779
115241 6.37847
115311 5.65027
115380 5.37553
115449 4.62971
115519 4.23526
115588 4.37206
115658 4.25722
115727 4.44007
115797 3.99032
115867 4.53628
115936 4.97015
116006 5.05521
116076 4.97484
116146 4.39029
116216 3.77992
116286 3.73053
116357 3.70161
116427 3.57470
116497 3.27589
116567 3.40776
116631 3.14086
116687 4.70714
116744 6.01658
116800 6.19223
116857 5.26026
116913 4.88845
116970 4.53909
117026 4.34929
117083 3.87943
117140 3.91894
117197 3.83659
117253 3.83014
117310 3.59535
117367 3.09304
117424 2.90011
117481 3.39993
117538 2.91986
117595 2.86739
117652 2.53527
117709 3.08036
117766 3.54271
117824 3.49214
117881 3.51456
117938 2.45164
117995 3.47200
118053 3.91545
118110 4.58002
118168 6.12103
118225 7.83668
118283 9.78875
118340 9.77835
118398 9.51062
118456 8.04969
118513 7.28017
118571 6.62205
118629 6.06866
118687 5.56989
118745 5.00061
118803 4.89891
118861 4.84164
118919 4.44868
118977 3.87797
119035 4.13124
119093 3.63731
119151 3.40693
119209 4.04255
119268 3.12461
119326 2.82959
119384 3.25437
119443 3.33832
119494 5.10870
119538 7.31791
119581 9.37731
119625 9.50466
119669 8.73661
119713 7.52810
119757 6.24459
119801 5.70650
119845 6.08888
119904 5.42239
119977 6.20994
120051 7.34632
120125 7.19871
120198 6.65066
120272 5.44445
120346 5.36707
120420 4.73979
120494 4.37385
120568 3.83054
120642 4.31101
120716 3.56941
120790 3.58772
120864 3.64795
120939 3.04119
121013 3.49073
121088 5.01553
121162 6.23262
121237 5.31228
121312 4.03882
121386 3.61353
121461 3.94298
121536 3.90609
121611 4.55265
121686 4.95423
121761 4.23552
121836 3.41773
121912 2.98900
121987 3.14763
122062 2.90207
122138 2.99471
122213 2.99328
122289 3.67701
122365 4.38350
122440 5.20816
122516 4.26077
122592 3.47431
122668 3.06784
122744 3.21233
122820 3.11862
122896 3.02112
122973 2.18945
123049 2.42655
123125 2.46340
123202 2.19035
123278 2.11163
123355 2.14788
123432 2.44980
123508 2.25922
123578 3.14757
123639 3.08612
123701 4.23645
123762 4.83204
123824 5.61193
123885 6.26500
123947 7.64640
124009 8.29036
124071 9.21319
124133 8.84540
124195 8.58255
124257 7.40216
124319 7.19769
124381 6.14537
124443 5.60451
124505 6.61262
124567 8.72072
124629 9.57255
124692 8.18259
124754 6.73230
124816 5.49914
124879 5.07471
124941 4.11675
125004 3.64714
125066 3.13287
125129 3.30675
125191 3.25368
125254 3.15636
125317 3.03427
125380 3.06340
125443 4.02788
125506 5.51748
125568 7.18161
125631 8.45667
125694 8.44939
125758 7.68073
125821 7.51340
125884 6.68096
125947 5.77907
126010 4.69385
126074 4.36026
126137 4.71814
126200 4.16801
126264 2.98790
126327 2.31698
126391 2.39436
126455 2.28844
126518 1.73454
126582 2.33153
126646 2.52442
126710 3.77738
126773 5.20904
126837 6.45771
126901 7.57778
126965 8.59162
127029 8.71266
127093 8.03147
127158 8.76491
127222 7.99343
127286 7.60581
127350 7.40246
127415 6.96465
127479 6.65111
127543 6.00360
127608 6.01750
127672 5.55185
127737 5.68403
127802 5.55229
127866 5.69679
127931 6.07080
127996 5.87070
128061 6.06512
128125 7.57153
128190 9.71498
128255 13.2503
128320 14.2776
128385 15.7670
128451 15.1411
128516 14.6499
128581 13.2817
128646 12.3075
128712 10.6668
128777 9.35183
128842 8.75722
128908 8.00136
128973 7.77540
129039 7.76474
129105 7.51005
129170 7.14396
129236 5.80403
129302 5.35592
129368 4.34623
129433 4.45204
129499 4.53303
129565 5.50741
129631 7.19296
129697 9.28122
129764 8.86077
129830 7.70628
129896 6.64923
129962 5.75648
130029 5.15608
130095 5.11328
130161 4.78158
130228 4.62483
130294 4.85946
130361 4.50207
130428 4.75957
130494 4.89675
130561 4.16977
130628 3.34893
130695 3.23843
130761 2.54836
130828 2.59413
130895 2.50587
130962 2.86651
131021 3.23245
131071 4.09150
131122 5.64155
131172 8.09085
131223 10.9497
131273 11.6629
131324 10.8180
131374 9.87535
131425 8.38354
131475 6.72222
131526 6.29183
131585 6.11453
131653 5.24671
131720 5.07163
131788 4.58653
131856 4.00638
131923 3.92569
131991 3.53732
132059 3.29955
132127 3.08138
132195 2.70234
132263 3.07131
132331 2.81202
132399 1.91577
132467 2.04010
132536 1.75936
132604 1.66881
132672 1.55331
132741 1.81676
132801 2.19312
132852 3.29683
132904 4.41179
132955 6.12910
133006 6.90933
133058 8.27150
133109 8.70816
133161 10.4950
133213 11.1931
133264 10.7863
133316 9.51349
133368 7.61250
133419 7.18164
133471 5.83730
133523 5.41030
133575 4.63442
133626 4.58017
133678 4.17476
133730 3.69844
133782 4.36256
133834 4.33145
133886 5.02275
133938 6.13760
133990 7.81199
134042 9.79520
134094 9.68674
134146 8.46386
134198 6.81273
134251 5.30491
134303 4.69523
134364 4.77281
134434 4.69096
134503 4.19425
134573 3.87121
134643 3.22629
134713 3.09216
134783 2.64029
134853 2.56908
134923 2.21910
134993 2.40517
135064 1.98029
135134 1.89906
135204 2.45109
135275 2.54243
135345 2.98457
135415 3.77066
135486 4.58101
135557 5.83812
135627 7.67783
135698 8.76235
135769 9.95494
135840 11.3173
135910 12.3882
135981 12.5800
136052 11.6605
136123 10.9270
136194 9.61813
136266 7.92810
136337 6.25223
136408 4.29008
136479 3.32732
136551 2.77055
136622 4.26128
136694 8.13893
136765 11.7162
136837 14.8133
136909 15.7396
136980 16.3755
137052 16.7591
137124 16.3228
137196 15.2460
137268 14.8748
137340 14.0416
137412 13.3212
137484 11.9857
137556 11.4646
137628 11.3249
137700 12.2528
137773 12.4670
137845 11.6586
137918 10.9991
137990 10.1899
138063 9.99178
138135 9.78742
138208 9.96738
138281 9.61877
138354 9.19732
138426 8.59448
138499 8.23511
138572 8.13677
138645 7.92232
138718 7.81882
138792 7.91863
138865 8.13035
138938 7.81037
139011 7.39133
139085 7.46981
139158 7.26395
139232 6.85564
139305 6.64559
139379 5.68726
139452 6.30381
139526 6.11957
139600 5.79577
139674 5.73540
139748 5.50625
139822 6.41290
139896 6.12501
139970 5.79822
140044 4.91956
140118 4.38146
140183 3.22587
140239 3.61031
140294 3.77067
140350 4.82774
140406 6.68544
140462 9.23141
140518 11.5125
140574 13.2347
140630 13.0057
140686 11.7143
140742 10.3829
140798 9.62103
140854 8.45813
140910 7.80304
140966 7.42174
141022 6.50251
141079 6.27146
141135 5.71249
141191 5.33068
141247 4.79460
141304 4.38623
141360 4.06976
141417 3.63370
141473 3.47010
141530 4.36660
141586 5.43302
141643 7.74241
141699 9.84597
141756 12.1297
141813 13.1855
141869 12.8598
141945 11.9574
142040 11.0416
142134 10.1606
142229 9.15609
142324 8.14988
142419 8.27516
142514 8.12917
142609 7.81905
142705 7.85834
142800 7.49022
142896 6.48177
142991 6.43292
143087 6.17612
143183 7.53940
143279 8.24484
143375 7.86395
143471 7.29429
143567 7.45309
143663 8.24374
143759 7.85505
143856 6.73431
143952 6.11538
144049 6.31731
144146 6.93551
144243 6.22356
144340 5.83977
144437 5.34869
144534 5.13552
144631 4.82327
144729 4.65254
144826 4.64600
144923 5.05910
145021 5.86978
145119 7.31209
145217 7.54300
145315 6.63798
145413 6.16033
145511 5.85988
145609 5.96751
145707 6.06894
145806 6.46727
145904 5.72749
146003 5.84311
146102 5.51601
146201 5.07515
146299 5.00369
146399 5.04212
146498 4.84652
146597 4.67888
146696 4.74876
146796 4.49854
146895 4.26876
146995 3.74580
147095 4.21948
147194 3.95539
147294 3.86334
147394 3.58006
147495 3.48029
147595 3.91532
147695 3.35045
147796 2.86889
147876 2.59213
147936 2.65288
147997 3.68997
148057 4.94004
148118 5.93453
148178 6.86699
148239 8.80541
148299 9.70219
148360 9.18217
148421 8.27815
148481 6.58464
148542 6.28940
148603 5.38427
148664 5.46685
148725 4.94986
148786 4.65359
148846 4.39070
148907 3.89376
148968 3.44600
149029 3.11111
149091 3.22419
149152 3.10314
149213 2.91368
149274 4.08909
149335 5.76547
149397 8.20467
149458 9.45396
149519 10.1297
149581 8.78227
149652 7.68398
149734 6.77519
149816 5.66596
149898 5.26599
149980 5.15155
150063 4.72026
150145 4.40050
150227 4.06267
150310 4.26034
150392 3.66091
150475 3.50230
150557 2.89715
150640 2.61642
150723 2.78665
150806 3.52130
150889 5.15331
150972 6.50665
151055 5.77270
151138 5.63624
151221 6.71831
151304 8.33385
151388 7.54418
151471 6.39046
151554 5.64546
151638 5.46463
151722 5.18421
151805 4.83073
151889 4.69745
151973 4.78127
152057 6.40608
152141 8.18912
152225 8.88591
152309 8.06843
152393 7.44907
152477 6.96199
152561 7.11886
152646 7.78481
152730 7.94839
152815 6.79809
152899 5.22804
152984 4.48494
153069 4.87009
153153 4.82925
153238 4.34914
153323 4.41467
153408 4.24984
153493 3.97515
153578 4.32134
153664 3.75054
153749 3.42845
153834 2.72917
153920 2.58404
154005 2.22387
154091 2.33995
154176 2.37924
154262 2.93831
154348 4.41548
154434 5.88157
154519 5.59922
154605 5.24731
154692 4.25074
154778 3.57996
154864 4.67196
154950 4.67495
155037 6.92301
155123 8.49665
155209 10.6664
155296 12.0214
155383 11.7680
155469 11.3397
155556 11.0150
155643 11.0051
155730 9.19340
155817 7.98690
155904 7.64406
155991 7.47174
156078 8.30849
156166 7.49226
156253 6.89842
156340 5.85683
156428 5.24024
156516 5.58503
156603 6.26871
156691 6.83701
156779 5.72447
156867 4.83883
156955 4.64568
157043 4.60878
157131 4.61244
157219 4.23723
157307 3.88150
157396 3.41630
157484 2.92342
157572 2.77181
157661 2.21198
157750 1.80248
157838 1.81496
157927 3.26618
158016 5.85908
158105 8.61802
158194 9.76189
158283 10.3426
158372 10.8181
158461 11.2627
158551 10.8191
158640 9.66306
158729 8.62489
158819 7.67648
158909 7.20117
158998 6.75630
159088 6.50797
159178 5.87686
159268 6.19293
159358 5.74977
159448 5.36951
159538 5.39213
159628 5.53168
159718 5.15684
159809 4.48706
159899 3.97455
159990 4.18138
160080 4.90119
160171 5.63988
160262 6.48085
160353 5.59635
160444 5.59138
160535 4.54906
160626 4.33437
160717 4.18888
160808 4.07839
160899 4.00938
160991 4.45972
161082 3.84552
161174 3.65392
161265 3.01307
161357 3.05773
161449 2.62082
161541 2.82115
161632 2.62782
161724 3.20651
161816 3.16663
161909 4.10796
162001 4.20879
162093 4.85826
162186 5.70433
162278 7.03184
162371 7.27355
162463 7.55988
162556 6.95415
162649 7.25820
162742 6.91804
162835 6.06135
162928 5.83521
163021 5.49710
163114 5.17992
163207 5.79846
163300 7.24341
163394 8.79857
163487 8.40547
163581 7.54629
163675 6.38770
163768 5.69532
163862 5.55100
163956 4.85297
164050 4.83753
164144 4.60852
164238 4.57234
164333 4.18268
164427 3.95532
164521 3.99633
164616 4.09096
164710 4.36650
164805 4.35500
164900 4.80088
164994 4.12046
165089 4.18711
165184 3.87051
165279 4.07409
165375 3.76613
165470 3.18599
165565 2.78001
165660 2.46970
165756 2.42090
165851 2.33945
165947 2.59448
166043 2.53418
166139 3.22344
166234 2.91093
166330 2.55446
166426 2.46633
166523 2.16270
166619 2.58735
166715 3.34356
166799 3.97090
166872 4.96762
166944 6.36619
167016 8.38342
167089 8.97038
167161 9.94025
167234 10.4555
167307 9.35488
167379 8.89211
167452 8.13601
167525 7.36200
167597 6.89224
167670 6.48056
167743 6.90333
167816 8.11263
167889 8.03264
167962 8.18482
168035 7.50518
168108 7.05901
168182 6.85596
168255 6.34106
168328 6.30226
168401 5.76575
168475 4.64479
168548 3.86466
168622 4.48322
168695 5.19668
168769 6.65735
168842 7.25338
168916 9.13574
168990 11.3519
169063 11.3334
169137 10.2479
169211 8.78538
169285 7.01250
169359 5.62139
169433 4.75784
169507 4.87088
169581 5.70803
169655 7.24733
169729 9.36256
169804 11.1733
169878 11.9514
169952 12.0882
170027 12.1843
170101 11.1008
170188 10.7908
170287 9.81847
170387 9.31201
170487 8.66758
170586 8.36226
170686 8.17794
170786 7.37431
170898 7.33572
171023 6.78446
171148 6.87549
171274 6.92598
171399 7.11908
171525 6.27873
171650 6.63223
171776 6.53996
171902 5.97203
172029 5.62289
172155 5.28285
172281 5.81735
172408 5.68528
172534 5.66030
172661 5.03289
172788 5.17286
172915 4.89461
173043 4.76245
173170 4.71825
173298 4.53864
173425 4.48342
173553 4.19065
173681 4.12840
173809 3.90039
173937 3.66606
174066 3.86255
174194 3.85903
174323 3.36516
174452 3.47138
174581 3.20849
174710 3.12421
174839 4.10713
174969 5.50789
175098 4.85643
175228 4.41971
175358 3.74108
175488 3.44528
175618 3.17274
175748 3.18493
175878 4.14146
176009 6.49899
176140 9.35673
176271 9.76933
176401 8.30536
176533 6.85521
176664 5.96198
176795 5.28446
176927 5.19012
177059 5.39518
177190 4.69530
177322 4.08971
177455 3.38382
177587 2.87187
177719 2.68965
177852 3.51322
177985 5.06520
178118 7.46662
178251 8.45721
178384 8.35868
178517 7.09013
178651 7.81674
178784 7.41251
178918 6.36203
179052 5.53668
179186 5.23020
179321 5.60635
179455 5.04736
179589 4.48522
179724 4.20468
179859 4.13705
179994 3.65845
180129 3.63320
180265 3.02892
180400 3.55732
180536 3.25232
180671 3.07749
180780 3.36606
180862 4.32281
180943 5.92102
181025 7.84765
181107 9.28170
181189 9.06310
181271 8.86821
181353 7.26771
181435 6.44476
181517 5.03051
181599 4.82952
181681 4.00952
181763 4.02315
181845 4.18635
181928 5.18418
182010 6.71789
182092 7.81030
182175 8.48448
182258 7.09876
182340 6.53868
182423 5.49549
182506 5.16642
182588 5.08896
182671 4.99961
182754 4.91952
182837 4.65457
182920 4.78880
183003 4.74612
183086 5.17598
183169 6.04626
183253 5.86738
183336 5.01101
183419 3.47245
183503 2.94960
183586 2.36388
183670 2.51723
183753 2.14909
183837 2.09040
183921 2.15835
184004 2.24319
184088 2.98030
184172 3.62642
184256 4.98665
184340 6.98079
184424 8.14281
184508 8.88626
184592 8.63671
184676 8.41360
184761 8.05518
184845 8.26922
184929 8.33890
185014 8.22859
185098 8.93979
185183 8.46762
185267 8.15296
185352 7.46084
185437 7.07106
185522 6.57615
185606 6.60387
185691 5.82552
185776 5.40459
185861 5.07644
185946 4.55527
186031 4.30309
186117 4.32829
186202 4.14185
186287 3.55234
186373 3.56573
186458 3.26739
186543 3.00401
186629 3.36393
186715 4.11427
186800 4.93270
186886 5.65084
186972 5.24536
187058 4.49981
187144 4.79245
187229 5.44510
187315 6.96643
187402 7.10501
187488 6.80773
187574 6.49465
187660 5.26937
187746 5.06026
187833 5.17340
187919 5.18016
188006 5.10343
188092 4.75540
188179 5.25085
188266 4.53525
188352 3.94321
188439 3.55741
188526 3.32258
188613 3.81730
188700 4.02434
188787 3.55736
188874 3.02574
188961 2.53436
189048 2.28559
189136 1.63248
189223 2.20156
189310 2.85384
189398 3.62539
189485 5.36713
189573 5.57564
189661 5.67500
189748 5.44364
189836 5.31567
189924 6.16405
190012 6.32014
190100 5.79696
190188 5.53032
190276 5.34362
190364 5.56265
190452 5.45437
190540 5.29967
190629 4.26567
190717 3.52055
190805 2.56855
190894 2.28157
190982 2.16188
191071 2.27849
191160 2.19089
191248 1.57409
191337 2.18562
191426 2.64000
191515 3.96094
191604 6.20473
191693 7.60635
191782 6.91566
191871 5.24047
191961 3.63889
192050 3.30656
192139 3.21918
192229 3.11104
192318 3.86220
192408 4.60358
192497 5.50542
192587 6.30568
192677 7.97801
192766 9.01194
192856 9.11875
192946 8.37427
193036 7.86394
193126 6.59907
193216 4.87134
193307 4.40264
193397 3.63392
193487 4.00388
193577 3.87636
193668 4.24289
193758 4.94719
193849 5.85687
193940 6.67047
194030 7.93379
194121 8.53809
194212 9.53590
194303 9.73680
194394 10.3601
194485 10.5288
194576 10.5672
194667 10.9579
194758 10.8753
194849 10.4831
194941 9.92357
195032 9.70298
195123 9.06941
195215 8.24852
195307 7.24395
195398 6.80437
195490 5.97205
195582 5.93901
195674 5.49513
195765 4.93491
195857 4.19277
195949 3.62104
196041 2.78379
196134 2.08564
196226 2.75659
196318 4.00433
196411 6.35985
196503 8.39484
196595 10.7854
196688 10.6586
196781 10.4817
196873 9.72246
196966 9.07494
197074 8.35481
197198 8.25911
197322 7.53758
197446 6.91906
197570 6.82229
197695 6.70901
197819 6.88098
197944 6.36199
198069 5.75936
198193 5.78272
198318 5.47698
198443 5.87144
198568 6.26047
198694 5.77907
198819 5.47091
198945 4.69157
199070 4.61164
199196 4.11353
199322 3.70271
199448 3.81288
199574 3.19695
199700 3.36972
199827 3.00567
199953 2.43898
200000 2.54828
200080 2.73432
200206 2.90817
200333 3.00546
200460 2.68608
200587 2.08650
200714 2.29420
200842 3.12017
200969 4.18717
201097 5.29420
201224 7.11750
201352 9.30844
201480 10.6431
201608 9.97838
201736 9.88397
201865 9.34059
201993 9.58346
202122 8.68865
202250 8.53769
202379 6.65181
202508 6.50111
202637 7.93330
202766 9.42081
202895 9.72128
203025 9.62931
203154 9.50751
203284 9.51115
203414 8.92807
203544 8.24512
203674 7.69163
203804 6.99119
203934 6.43000
204065 6.29437
204195 5.97666
204326 5.93995
204456 6.24128
204587 6.01191
204718 5.63250
204849 5.15299
204981 5.39231
205112 5.83456
205244 6.09538
205375 6.10800
205507 6.07912
205639 6.98680
205771 7.75851
205903 8.55834
206036 9.12508
206168 9.05118
206300 9.03804
206433 8.25929
206566 7.67067
206699 7.03208
206832 6.71847
206965 6.16243
207098 6.09228
207232 6.05168
207365 5.83634
207499 5.37958
207633 5.28519
207767 5.27295
207901 5.52674
208035 5.70310
208170 5.86264
208304 5.54568
208439 5.14313
208573 4.85753
208708 4.69112
208843 4.00277
208978 4.24298
209114 4.78186
209249 5.13617
209385 5.25235
209520 4.63400
209656 4.67103
209792 4.91776
209928 4.24198
210064 4.36818
210200 3.89536
210337 4.24976
210474 4.03494
210610 3.83432
210747 3.45964
210884 3.59029
211021 3.80309
211158 4.28481
211296 4.28759
211433 4.23069
211571 3.80344
211709 3.63370
211847 2.38417
211985 1.34600
212106 1.78018
212209 2.92681
212313 4.57494
212417 6.15237
212521 6.86715
212625 6.52879
212729 6.00623
212833 5.54937
212938 5.08969
213042 4.40942
213146 4.39973
213251 4.02720
213355 4.32755
213460 3.33509
213565 3.53710
213670 3.37257
213774 3.36955
213879 4.50088
213984 5.43624
214089 7.11609
214195 7.43512
214300 7.62874
214405 7.64867
214511 8.31966
214616 8.75597
214722 8.70175
214827 9.09840
214933 9.33050
215039 9.63046
215145 9.72231
215251 8.84639
215357 7.70043
215463 6.69412
215569 5.89787
215675 5.32957
215782 4.82205
215888 5.27849
215995 6.60809
216101 6.73607
216208 6.49891
216315 5.86541
216421 6.01572
216528 5.50433
216635 4.67687
216742 4.14398
216850 3.36759
216957 3.05766
217064 2.83140
217171 3.34633
217279 4.48096
217386 6.62126
217494 8.40965
217602 8.39024
217709 7.86207
217817 6.73926
217925 6.24800
218033 5.60972
218141 5.40843
218250 4.86908
218358 4.79554
218484 5.42752
218629 6.71840
218774 6.87754
218919 6.62709
219064 5.77425
219209 4.44186
219354 4.16671
219499 4.58432
219645 5.29073
219791 6.10617
219937 7.18178
220083 7.77415
220229 8.17716
220375 7.16801
220522 7.07475
220668 6.26292
220815 5.97195
220962 5.89733
221109 5.89039
221256 6.00039
221404 5.83158
221551 5.73153
221699 5.18916
221847 4.26387
221995 4.40903
222143 5.24290
222291 5.35564
222439 4.71950
222588 3.97166
222737 3.86746
222885 3.73188
223034 4.40047
223184 4.29414
223333 4.87811
223482 5.32867
223632 4.74607
223782 3.84158
223932 2.83532
224082 2.46768
224232 2.35732
224382 2.97655
224533 5.84499
224683 7.96078
224834 8.82322
224985 8.14734
225136 7.22385
225287 6.22328
225439 5.71473
225590 4.60625
225742 4.19570
225894 5.03320
226046 6.55124
226198 6.52247
226350 5.48765
226503 4.79463
226656 3.97444
226808 3.77272
226961 4.21178
227114 4.34637
227268 3.98748
227421 3.86053
227575 2.78145
227728 2.79361
227863 2.36927
227978 2.26963
228094 3.08187
228210 4.21642
228325 6.12297
228441 7.41300
228557 8.29281
228673 8.02542
228789 7.61271
228906 6.82965
229022 6.70936
229138 6.87672
229255 6.24443
229371 5.70421
229488 5.40470
229605 4.55663
229721 3.93211
229838 3.63320
229955 3.35979
230072 3.38952
230190 3.27847
230307 3.79998
230424 3.72184
230542 4.69346
230659 5.04854
230777 4.47718
230895 3.68318
231012 2.97481
231130 3.13497
231248 3.02008
231366 4.22491
231485 5.60696
231603 6.96298
231721 8.14526
231840 7.75931
231958 7.40409
232077 6.12439
232195 5.12291
232314 4.07856
232433 3.71542
232572 4.03070
232731 5.74514
232890 7.19291
233049 8.53630
233208 9.06729
233368 8.59837
233527 8.08345
233687 7.64674
233847 7.82485
234007 7.73597
234167 6.94271
234328 6.75138
234488 6.68499
234649 6.57636
234810 7.01749
234971 6.90906
235133 6.43816
235294 6.23459
235456 5.43117
235617 5.06461
235779 5.64888
235941 6.24285
236104 6.02823
236266 5.15530
236429 4.98189
236592 4.76461
236755 4.59527
236918 4.15446
237081 3.75276
237244 3.23274
237408 4.05470
237572 5.05947
237736 5.90945
237900 6.37319
238064 6.02803
238229 5.52333
238393 4.80814
238558 4.34457
238723 4.21448
238888 3.50349
239054 3.27044
239219 2.94002
239385 3.44410
239551 4.40334
239717 5.02198
239883 4.66760
240049 5.26499
240216 5.58662
240382 6.33444
240549 5.58449
240716 5.44145
240884 4.44546
241051 3.49949
241198 3.26321
241323 3.37549
241449 3.89426
241575 5.26784
241701 5.55437
241827 5.79549
241954 5.55375
242080 4.78124
242207 4.41929
242333 4.26230
242460 5.03554
242587 5.30011
242713 5.75107
242840 6.30257
242968 7.06610
243095 7.18890
243222 7.06510
243349 6.49413
243477 5.98582
243604 5.46778
243732 4.57271
243860 4.20776
243988 3.86750
244116 3.61577
244244 3.57900
244372 3.98597
244500 4.44256
244629 4.41054
244757 4.10465
244886 4.17499
245014 4.38284
245143 5.28983
245272 6.22716
245401 5.97845
245530 5.48820
245659 4.53722
245788 3.51345
245918 3.19917
246047 2.89841
246177 2.86352
246307 2.84598
246436 3.54027
246566 4.06828
246696 5.71004
246826 6.90767
246957 7.17188
247087 7.88940
247217 7.77484
247348 7.61730
247479 6.88361
247609 6.50398
247740 5.60653
247871 6.30120
248002 7.45113
248133 7.87760
248286 7.28671
248462 6.72292
248637 5.99924
248812 5.89838
248988 6.55774
249164 6.36091
249340 6.00143
249517 5.41299
249693 4.92042
249870 5.36366
250047 6.22592
250224 6.75331
250401 6.22273
250578 6.60363
250756 6.54456
250934 6.50827
251112 6.52141
251290 6.35095
251468 5.94247
251647 6.57623
251825 7.33692
252004 7.57461
252184 8.32818
252363 7.41930
252542 7.32793
252722 6.55591
252902 5.81613
253082 5.16468
253262 4.64705
253443 4.55513
253623 4.87531
253804 5.62169
253985 6.80353
254167 6.95591
254348 6.79572
254530 6.89209
254712 6.43010
254894 5.77923
255076 5.80709
255258 6.57812
255441 7.00896
255624 6.39641
255807 6.12994
255990 6.01687
256173 5.58796
256357 5.39964
256541 5.00659
256725 4.66627
256909 4.96506
257093 5.04787
257255 4.86807
257393 5.72824
257532 5.76494
257671 5.86732
257810 4.97690
257949 4.61717
258088 4.62332
258227 5.29847
258366 5.92187
258506 7.04867
258645 6.97115
258785 6.44023
258925 5.82278
259065 5.50923
259205 5.43542
259368 5.48244
259555 5.59264
259742 5.56367
259930 5.89477
260118 5.87663
260305 5.32171
260494 4.89963
260682 4.66513
260870 4.65629
261059 5.09246
261248 5.33981
261437 5.36652
261626 4.93734
261816 4.66054
262005 4.35665
262195 3.96840
262385 3.94891
262576 3.79244
262766 3.96460
262957 3.63752
263148 4.10083
263339 4.51665
263530 4.18533
263698 3.48272
263842 3.92496
263986 4.08929
264130 4.43226
264274 3.94182
264418 2.86686
264562 2.71258
264707 1.97266
264852 2.06999
264996 1.88260
265141 2.02463
265286 2.28202
265431 3.02078
265576 3.77398
265722 5.57046
265867 6.49290
266013 6.77723
266159 7.49780
266304 8.00177
266450 7.93037
266596 8.27960
266742 7.69953
266889 7.19778
267035 6.48896
267182 5.98513
267328 5.87091
267475 5.45568
267622 5.36070
267769 5.23300
267916 4.77621
268063 4.72714
268211 5.43779
268358 5.30672
268506 5.08771
268654 4.36867
268802 4.29521
268949 4.62562
269098 4.74093
269246 4.66888
269394 5.05994
269543 4.59241
269691 4.29106
269840 3.45970
269989 3.44095
270138 3.22805
270287 2.81637
270436 3.11706
270585 3.72869
270735 4.23008
270885 4.73310
271034 4.44258
271184 4.10786
271334 3.77043
271484 3.33237
271634 3.63450
271785 4.69837
271935 6.43587
272086 7.78015
272236 7.73290
272387 6.68218
272538 6.54608
272689 5.56237
272840 4.88801
272992 4.65568
273143 4.25457
273295 4.06489
273447 4.15451
273598 3.85468
273750 3.65061
273902 3.09241
274055 3.22309
274207 3.53592
274360 4.22629
274512 4.11495
274665 3.76727
274818 3.11247
274971 2.72320
275124 2.63123
275277 2.59824
275430 2.44175
275584 2.44405
275738 2.46221
275891 3.26917
276045 4.18422
276199 4.99293
276353 4.44127
276508 3.31842
276662 2.45866
276817 1.68782
276971 1.68877
277126 2.36826
277281 4.10332
277436 5.18687
277591 5.28817
277746 5.14014
277928 5.03256
278135 5.58327
278343 6.46196
278551 6.39141
278759 5.93230
278967 5.01368
279176 4.80330
279385 4.38737
279594 3.73869
279803 3.52336
280013 3.31330
280223 3.55150
280433 3.86223
280643 3.90538
280854 4.46487
281065 5.29163
281276 5.80116
281487 5.73209
281698 5.41773
281910 5.48553
282122 5.90022
282334 5.99033
282547 5.97987
282759 5.13621
282972 4.40964
283159 4.79885
283319 5.13005
283479 4.79374
283639 4.94614
283800 5.51682
283960 6.73371
284121 6.99634
284282 7.68079
284443 8.04690
284604 8.32670
284765 8.62985
284926 7.89703
285088 7.73782
285249 7.78622
285411 7.78832
285573 7.37138
285735 6.71490
285897 6.26563
286060 5.91954
286222 5.75368
286385 5.22500
286547 5.02251
286710 4.65740
286873 3.92844
287037 3.23073
287200 2.63131
287363 2.89981
287527 3.70763
287691 4.89396
287854 6.52281
288018 6.79116
288183 6.67232
288347 7.33959
288511 7.59279
288676 7.44761
288841 7.09290
289005 7.50112
289170 7.69601
289336 8.58631
289501 8.38169
289666 7.73978
289832 7.04638
289997 6.51361
290163 6.78617
290329 6.87314
290495 6.52579
290662 6.50840
290828 6.07401
290995 6.06406
291161 6.03184
291328 5.62606
291495 4.88207
291662 4.20634
291830 4.53473
291997 5.71487
292164 6.48127
292332 7.14012
292500 6.20676
292668 6.23913
292836 5.72257
293004 5.26765
293173 5.00034
293341 4.81697
293510 4.80968
293679 4.22822
293848 3.37886
294017 3.28522
294186 3.18736
294356 3.90123
294525 5.25774
294695 6.86175
294865 7.36821
295035 6.80303
295205 5.99952
295376 5.64265
295546 5.53328
295717 5.51653
295888 5.20879
296058 4.56906
296229 3.65216
296401 3.04484
296572 2.82306
296744 3.03493
296915 4.04464
297087 5.01822
297259 6.41671
297431 7.16951
297603 7.52787
297776 7.20214
297948 6.68010
298121 6.24707
298294 5.78741
298467 5.40311
298640 4.93204
298813 4.86477
298987 4.43590
299160 3.53857
299334 3.26613
299508 2.48458
299682 2.07089
299856 2.06218
300000 2.79332
300031 2.95072
300205 4.18432
300380 5.22732
300555 6.83147
300730 7.18660
300905 6.74632
301080 6.22628
301256 5.48575
301431 5.52905
301607 6.29104
301783 7.30533
301959 7.74202
302135 7.70465
302311 7.62530
302488 6.78122
302665 7.02849
302841 7.00213
303018 6.83625
303196 6.99739
303373 7.03228
303550 6.70569
303728 6.69231
303906 5.64198
304084 5.92676
304262 5.40319
304440 5.09064
304618 5.15513
304797 6.01292
304975 6.50105
305154 6.56084
305333 5.98857
305513 5.41155
305692 5.13376
305871 4.59370
306051 4.90013
306231 5.63464
306411 5.24075
306591 4.80118
306771 5.19261
306952 4.82765
307132 5.33762
307313 5.79051
307494 5.63899
307675 5.50993
307856 5.26821
308038 4.82995
308219 4.94858
308401 4.87429
308583 4.89957
308765 5.17348
308947 5.44669
309129 5.65845
309312 5.72097
309494 5.50166
309677 4.77840
309860 4.72481
310043 4.71049
310227 4.44934
310410 4.34841
310594 4.48471
310778 4.62722
310962 5.25937
311146 5.46513
311330 5.24377
311515 4.71421
311699 3.91874
311884 3.79596
312069 3.33662
312254 3.39761
312440 3.85061
312625 4.88590
312811 5.96817
312996 5.65267
313182 5.74407
313369 5.45856
313555 5.46574
313741 5.06460
313928 5.23655
314115 4.92529
314302 5.12847
314489 4.82929
314676 4.58423
314863 4.50479
315051 4.67255
315239 4.42552
315427 4.65359
315615 4.45345
315803 4.55983
315992 4.77015
316180 5.27208
316369 5.15049
316558 5.66499
316747 5.28284
316937 5.13857
317126 4.14755
317316 3.94987
317506 3.67082
317696 3.57593
317886 4.02419
318076 3.53621
318267 3.73316
318457 3.95870
318648 4.33342
318839 4.55560
319030 5.17336
319222 5.88274
319413 5.74480
319605 5.64140
319797 5.79762
319989 5.96328
320181 6.28744
320373 5.92985
320566 5.18955
320759 4.70824
320952 4.29104
321145 4.93015
321338 5.43750
321531 5.49244
321725 6.01988
321919 6.20273
322113 6.17605
322307 5.80304
322501 5.43326
322696 4.95646
322891 4.48537
323085 4.02530
323280 3.79532
323476 4.20948
323671 4.50418
323867 5.20888
324062 4.90938
324258 5.27939
324454 5.03433
324651 4.82361
324847 4.97797
325044 5.06536
325240 5.18091
325437 5.74681
325635 6.19962
325832 6.07845
326029 5.32606
326227 4.88138
326425 4.51467
326623 4.04709
326821 3.92707
327020 3.83704
327218 3.75168
327417 3.85148
327616 4.03699
327815 4.36624
328014 4.23216
328214 4.28485
328414 4.16938
328613 3.60498
328814 3.20813
329014 2.80981
329214 3.10764
329415 3.00980
329616 3.41271
329817 3.66634
330018 3.77711
330219 3.40503
330421 3.37053
330622 3.53079
330824 4.16762
331026 4.64069
331229 4.27855
331431 4.19969
331634 4.49645
331836 5.30122
332039 5.59174
332243 5.25633
332446 4.96031
332650 4.54775
332853 4.41805
333057 5.18113
333261 5.96306
333466 6.02850
333670 4.59197
333875 4.30603
334080 4.15568
334285 4.38186
334490 5.20512
334695 5.98688
334901 6.21948
335107 6.16008
335313 5.54758
335519 5.26414
335726 4.43140
335932 3.89609
336139 3.15623
336346 4.02605
336553 5.32233
336760 6.17310
336968 6.72793
337176 6.95384
337384 6.57398
337592 5.05474
337800 4.78814
338009 4.22916
338217 4.05657
338426 3.57651
338635 3.95225
338844 3.73499
339054 3.73411
339264 3.90914
339473 3.62113
339684 3.78996
339894 3.47928
340104 2.99552
340315 2.18865
340526 2.41434
340737 2.39167
340948 2.43784
341159 2.54157
341371 2.52874
341583 2.35558
341795 2.47617
342007 3.46469
342219 4.48415
342432 5.48619
342645 6.63141
342858 7.88506
343071 8.13681
343284 8.08834
343498 7.70247
343712 7.43304
343926 6.63711
344140 6.15938
344354 6.19900
344569 5.97477
344784 5.54335
344999 4.87732
345214 4.27944
345430 3.92716
345645 4.63066
345861 4.96082
346077 4.97867
346293 4.14830
346510 4.00878
346726 4.61198
346943 5.64129
347160 5.62528
347377 5.35042
347595 5.10716
347812 5.40552
348030 5.53703
348248 5.59937
348467 6.27278
348685 6.27664
348904 6.06895
349122 5.69773
349342 5.25092
349561 4.79129
349780 4.98900
350000 4.85588
350220 5.12365
350440 4.98077
350660 4.80786
350881 4.92558
351102 4.42568
351323 4.34230
351544 4.15548
351765 4.70149
351987 5.87274
352208 5.54157
352430 4.81289
352653 5.00228
352875 5.27267
353098 5.22279
353320 4.57047
353544 4.16788
353767 4.17552
353990 4.32923
354214 4.90063
354438 4.74834
354662 4.36278
354886 4.21735
355111 3.85516
355335 3.41673
355560 3.21074
355786 3.81424
356011 5.57551
356237 5.65280
356462 5.24773
356688 4.25980
356915 3.90328
357141 3.45838
357368 3.61893
357595 4.10454
357822 4.01182
358049 3.42094
358277 3.44028
358504 3.84801
358732 4.72790
358961 4.77477
359189 5.67429
359418 5.99999
359646 6.07884
359875 5.34663
360105 4.45910
360334 3.65357
360564 2.75341
360794 2.64366
361024 3.52360
361254 4.36003
361485 5.15822
361716 5.74090
361947 6.06039
362178 6.69094
362410 6.07864
362641 5.37263
362873 5.02835
363105 4.95511
363338 4.91252
363570 5.95877
363803 6.11293
364036 5.85916
364269 5.48609
364503 5.37463
364737 5.40260
364971 5.50477
365205 4.55064
365439 4.63729
365713 4.73170
366026 4.92987
366340 4.68345
366654 4.02404
366968 4.22028
367283 4.16833
367598 4.73559
367914 4.29584
368230 4.17473
368547 5.28571
368863 5.85659
369181 5.44429
369498 5.11435
369817 4.36564
370135 5.14172
370454 5.62075
370773 5.58605
371093 4.77045
371413 4.70451
371734 4.35128
372055 5.04728
372376 5.10185
372698 4.24055
373020 4.46272
373343 3.83923
373666 3.88230
373990 4.13823
374313 4.27332
374638 3.56981
374963 3.30203
375288 3.16707
375613 3.01161
375939 2.49711
376266 2.64620
376552 4.12274
376797 5.52675
377043 5.95492
377289 5.89043
377535 5.16082
377781 4.47726
378028 4.77697
378275 4.89249
378522 4.61694
378769 4.54478
379017 4.40127
379265 3.76504
379513 3.07726
379761 2.81922
380009 3.34450
380258 3.59863
380507 4.68381
380757 5.40317
381006 5.37461
381256 5.37457
381506 5.88561
381756 5.98894
382007 6.51617
382257 6.26054
382508 5.81047
382760 5.14349
383011 4.98343
383263 4.75916
383515 4.33544
383767 3.94265
384020 3.98563
384272 3.51636
384525 3.36747
384779 3.12120
385032 3.37287
385286 4.28414
385540 5.14095
385794 5.12336
386049 4.80976
386303 4.47927
386558 4.03780
386814 3.43771
387069 3.22487
387325 2.82498
387581 3.15756
387837 3.29845
388094 3.19720
388351 3.07683
388608 3.26335
388865 4.03462
389122 5.62800
389380 5.30782
389638 4.64522
389897 4.44029
390155 4.07583
390414 3.46087
390673 3.27690
390932 3.33786
391192 3.61902
391452 3.64441
391712 3.27038
391972 2.93336
392233 2.48492
392494 2.31185
392755 2.55273
393016 2.99361
393278 2.87280
393540 2.71592
393802 3.16812
394065 3.24190
394327 3.00679
394590 2.84465
394854 3.21891
395117 3.97126
395381 4.95923
395645 6.33501
395909 6.59859
396174 6.88243
396439 6.34410
396704 5.51612
396969 4.94795
397235 5.10907
397501 4.74613
397767 4.41867
398033 4.64131
398300 4.22364
398567 4.16082
398834 3.64946
399102 3.28494
399370 3.21345
399638 3.08769
399906 2.88403
400000 2.79885
400175 2.64029
400444 2.24585
400713 2.66554
400982 3.81083
401252 4.49217
401522 5.50836
401792 6.03437
402062 6.04495
402333 5.86702
402604 5.23464
402876 4.82038
403147 3.96409
403419 4.16499
403691 4.91894
403964 5.13568
404236 5.18146
404509 4.87798
404782 4.45794
405056 3.83820
405330 3.72568
405604 4.55334
405878 5.66564
406153 6.39920
406428 6.48486
406703 5.82895
406978 5.20497
407254 4.60090
407530 4.48138
407807 4.63768
408083 5.24153
408360 5.26401
408637 4.55939
408915 3.84652
409192 3.56710
409470 2.97082
409749 2.77912
410027 3.26573
410306 3.37266
410585 3.57873
410865 3.88268
411144 4.71628
411424 5.04436
411705 4.67448
411985 4.36972
412266 3.56301
412547 2.70662
412829 2.92235
413110 3.63632
413392 4.37661
413675 4.85247
413957 4.81932
414240 3.90024
414523 2.83683
414807 1.82228
415091 1.74334
415375 3.21069
415659 5.59698
415944 6.93499
416229 6.70317
416514 5.65465
416799 4.70836
417085 4.15323
417371 3.99773
417705 4.07402
418088 4.72166
418471 5.46145
418854 5.78121
419238 5.93452
419622 5.14708
420007 5.49131
420393 4.98433
420779 4.49052
421166 4.70752
421553 4.47092
421940 3.58916
422329 3.43617
422717 3.71071
423107 4.43874
423497 4.15396
423887 3.62103
424229 4.07569
424522 5.22518
424816 6.14753
425110 5.77795
425405 4.89874
425699 4.67187
425994 4.73299
426290 4.86339
426585 4.40772
426881 3.93100
427177 3.20227
427474 2.06411
427771 2.49795
428068 3.87112
428366 5.93170
428663 6.19692
428961 5.71464
429260 5.31914
429558 4.56534
429858 4.27973
430157 3.40269
430457 3.34073
430756 4.17935
431057 4.82721
431357 5.32258
431658 5.06024
431959 4.28549
432261 4.17184
432563 3.61214
432865 3.22049
433168 4.00509
433470 4.95253
433824 5.22799
434229 4.43757
434634 4.30670
435040 4.43690
435446 3.47182
435853 2.50605
436261 2.38649
436669 2.59942
437078 3.46671
437487 4.21911
437897 4.78533
438307 3.80583
438718 3.26568
439130 3.65632
439542 3.96454
439955 3.94940
440368 4.16960
440782 4.87136
441197 5.65139
441612 5.52893
442028 5.13151
442444 5.96917
442861 6.05620
443278 5.57925
443696 4.91836
444115 3.87928
444534 3.36537
444954 3.93475
445374 4.84887
445795 6.37228
446217 6.52355
446639 6.24824
447062 5.80999
447485 5.53892
447909 5.09056
448334 3.97852
448759 3.80175
449185 3.61515
449611 3.67074
450038 4.51363
450466 5.20066
450894 6.02279
451323 6.06211
451753 5.95148
452183 5.78718
452613 5.61146
453045 5.15774
453477 4.51016
453909 4.69697
454342 4.83157
454776 4.65459
455211 4.44618
455646 4.52243
456081 4.39456
456518 4.49183
456955 3.87429
457392 3.43262
457830 3.63583
458269 4.22353
458709 4.07900
459149 3.98881
459589 4.91442
460031 6.35655
460473 6.10074
460915 5.13266
461358 5.21742
461802 5.01903
462247 5.00910
462692 4.84788
463138 5.24294
463584 5.95823
464031 5.82853
464479 5.00122
464928 4.70684
465377 4.06502
465826 4.45809
466277 5.18386
466728 5.33731
467179 5.68034
467632 5.87760
468085 6.25608
468538 6.07630
468993 5.73213
469448 5.93780
469903 5.66733
470359 5.12428
470816 5.57683
471274 5.79890
471732 5.49316
472191 5.28228
472651 4.81675
473111 4.49632
473572 3.96591
474034 3.36629
474496 4.00994
474959 5.12081
475423 4.95501
475887 4.11877
476352 4.69431
476818 5.16054
477284 5.28560
477751 5.36120
478219 5.31135
478687 4.82311
479157 4.48989
479626 3.86073
480097 3.39355
480568 3.13127
481040 3.24643
481513 3.93370
481986 4.24894
482460 5.14170
482935 5.77605
483410 5.14004
483886 5.61526
484363 5.92913
484841 5.54545
485319 5.15332
485798 4.74732
486277 4.35026
486758 4.41123
487239 5.20160
487721 5.11722
488203 5.25299
488686 5.14575
489170 4.94586
489655 4.82539
490140 4.60193
490626 4.34339
491113 3.78339
491601 3.66061
492089 3.97484
492578 3.39014
493068 3.48544
493558 3.91451
494049 4.60898
494541 5.01219
495034 4.99499
495527 5.22389
496021 5.20661
496516 5.41620
497012 4.98411
497508 4.60140
498005 4.81329
498503 4.75300
499002 4.21801
499501 4.21835
500000 4.11746
500001 4.11726
500502 4.14139
501004 3.95990
501506 3.62867
502009 4.16514
502513 4.94184
503018 4.99350
503523 4.39803
504029 4.27953
504536 4.34593
505044 4.22831
505552 4.22743
506061 3.68129
506571 3.59569
507082 4.21101
507593 4.31019
508106 4.91497
508619 4.58543
509133 3.55392
509647 2.98197
510163 3.07976
510679 4.05110
511196 3.83365
511714 4.11843
512232 5.09328
512752 5.84203
513272 6.03980
513793 5.67306
514314 4.74232
514837 4.53604
515360 4.39865
515884 4.43031
516409 4.39075
516935 4.14203
517461 3.63908
517989 4.29186
518517 3.93752
519046 3.77131
519575 3.47505
520106 3.93502
520637 4.44152
521170 5.23561
521703 5.06234
522236 4.62260
522771 4.61695
523306 4.77827
523843 4.43960
524380 4.60797
524918 4.53994
525457 4.87681
525996 4.30824
526537 4.02868
527078 3.69580
527620 4.32320
528163 4.26272
528707 4.72113
529251 4.45539
529797 4.83879
530343 4.86749
530890 5.03642
531438 4.40321
531987 3.89667
532537 4.13169
533087 4.04758
533639 3.63499
534191 4.54614
534744 5.06245
535298 4.99096
535853 4.45208
536408 4.27759
536965 4.25911
537522 3.98235
538081 4.18291
538640 3.97353
539200 3.53733
539761 3.44883
540323 4.17526
540885 3.87456
541449 3.10198
542013 3.25043
542578 4.37723
543145 5.09990
543712 5.55463
544280 5.12995
544849 4.84379
545418 4.28632
545989 4.24826
546560 5.02738
547133 4.84959
547706 4.85311
548280 4.77540
548856 4.12892
549216 4.08110
549648 4.32614
550081 4.96055
550514 4.99438
550948 4.85265
551383 4.81603
551818 5.12433
552253 4.77834
552689 4.26650
553125 4.20989
553562 3.88736
554000 3.77221
554438 3.66469
554877 3.27412
555316 3.37486
555755 3.53056
556195 4.24801
556636 4.41257
557077 4.08568
557519 3.84057
557961 3.10564
558404 2.72863
558847 2.88895
559291 3.43572
559735 4.17102
560180 4.72286
560626 4.39092
561071 4.18880
561518 4.08559
561965 4.51840
562413 4.50855
562861 5.00012
563309 4.72062
563758 5.01933
564208 4.93378
564658 4.40000
565109 4.38121
565560 4.63674
566012 3.87339
566464 3.67081
566917 3.40400
567371 3.61600
567825 3.36234
568279 3.23887
568734 2.49621
569190 3.14899
569646 4.13440
570103 5.06800
570560 4.23961
571018 3.44674
571477 2.74157
571935 2.67415
572395 3.70704
572855 4.57424
573316 4.90714
573777 4.94769
574239 4.23947
574701 3.55807
575164 3.61402
575627 3.34407
576091 3.12822
576556 3.91595
577021 4.45386
577486 4.33254
577952 4.64380
578497 4.78476
579120 4.77653
579745 4.07849
580370 3.68848
580997 4.29884
581624 4.60609
582252 4.40779
582882 4.62872
583512 4.14761
584144 4.17850
584776 4.88323
585410 5.22059
586045 5.16647
586680 4.80664
587317 4.54177
587955 4.51916
588593 4.82377
589233 4.43507
589874 3.84847
590516 4.25550
591159 4.00308
591802 4.05840
592447 3.72146
593094 3.72910
593741 3.63417
594389 3.12898
595038 3.56267
595688 3.84657
596340 3.41459
596992 2.84007
597646 2.85600
598300 3.18717
598956 4.69510
599613 5.15170
600000 5.28159
600271 5.37256
600930 4.95886
601590 4.66258
602251 4.28496
602913 4.10278
603576 3.77153
604241 3.77445
604906 4.19832
605573 4.86657
606240 4.63756
606909 4.60178
607579 4.29335
608250 3.98965
608922 3.11328
609595 3.85496
610270 3.69842
610860 3.47225
611368 3.71010
611876 3.79609
612384 4.33930
612893 5.06411
613403 4.81692
613913 5.38195
614424 5.31845
614936 4.95463
615448 4.46605
615961 4.38748
616475 4.85541
616989 5.01980
617504 4.64376
618019 4.24911
618536 4.04009
619052 3.58395
619570 3.61900
620088 4.05687
620607 4.16280
621126 4.09741
621646 4.37105
622167 4.17233
622688 4.34500
623210 4.29633
623733 4.09859
624256 3.14770
624781 2.96819
625305 3.28479
625830 3.48446
626357 3.24990
626883 3.48403
627410 3.75026
627938 4.05990
628467 4.14404
628996 4.76992
629526 4.84144
630057 4.56363
630588 4.05230
631120 3.91991
631653 4.39488
632186 4.24905
632720 3.80295
633255 3.49264
633791 3.99515
634327 3.88525
634863 3.72750
635401 3.85802
635939 3.51281
636568 4.36501
637287 4.67616
638008 4.96449
638730 4.54951
639453 3.55730
640178 3.43707
640904 3.51227
641631 3.78923
642359 4.34084
643088 4.73296
643819 4.46010
644551 3.83605
645284 3.67166
646018 3.61820
646754 2.63032
647491 2.38908
648229 3.52160
648969 4.03209
649710 4.60537
650452 4.76243
651195 4.72400
651940 4.44168
652685 4.06220
653433 4.10322
654181 4.32161
654931 4.11087
655682 4.00663
656434 3.82140
657188 3.53053
657942 3.97816
658699 3.78086
659456 3.31507
660215 2.67288
660975 3.60105
661736 4.83332
662499 4.61287
663263 4.13235
664029 3.38914
664795 3.17509
665563 3.29552
666333 4.22909
667103 4.43813
667875 3.99423
668649 3.50900
669424 3.94195
670200 3.82381
670977 3.57892
671756 3.61103
672536 3.42676
673317 3.33059
674100 3.52186
674884 3.63428
675670 3.89104
676457 3.77646
677245 3.29356
678035 3.05799
678826 3.13776
679619 3.62867
679720 3.68949
679723 3.69135
680413 4.10676
681208 4.11555
682005 4.36124
682803 4.73379
683602 4.35538
684403 3.62902
685205 2.62366
686009 2.82881
686814 3.97510
687621 4.34271
688429 4.06622
689238 3.52346
690049 3.25623
690861 3.64230
691675 3.35891
692490 2.84482
693306 3.34446
694124 4.22507
694944 4.49513
695765 4.22260
696587 3.98616
697411 3.69226
698236 3.82657
699063 3.59770
699891 3.77135
700721 4.07229
701552 4.34296
702385 4.04854
703219 3.98667
704054 3.98233
704892 3.82094
705730 3.64776
706570 4.16060
707412 3.95505
708255 3.59084
709100 3.71309
709946 2.87734
710793 2.80479
711643 2.69463
712493 3.10467
713345 3.02252
714199 3.53170
715054 3.46972
715911 3.16897
716770 3.88710
717630 4.70671
718491 4.49631
719354 4.33897
720219 4.11146
721085 4.14628
721952 3.84764
722822 4.01430
723692 4.11413
724565 4.07464
725439 3.36285
726314 3.84680
727192 3.59641
728070 3.40597
728951 3.49122
729833 4.19790
730716 3.73827
731601 3.44304
732488 3.44324
733376 3.48897
734266 3.65206
735158 3.88434
736051 3.97067
736946 4.03355
737843 3.60334
738741 3.98911
739640 3.95518
740542 3.76992
741445 4.11200
742350 3.42364
743256 2.69404
744164 3.04217
745074 3.54910
745985 3.54634
746898 4.30597
747813 4.85092
748729 4.23392
749647 4.30259
750000 4.38968
750567 4.52957
751489 4.46895
752412 4.16184
753337 3.59830
754263 3.37080
755192 3.35133
756122 3.60559
757053 3.78301
757987 3.44294
758922 3.57398
759859 3.56631
760798 3.30014
761738 3.07693
762680 2.95176
763624 2.84993
764570 2.89199
765517 3.14005
766466 3.34511
767417 4.18079
768370 4.31747
769324 4.00480
770281 3.53893
771239 3.52356
772199 3.88861
773160 3.07594
774124 2.48558
775089 2.97197
776056 3.12653
777025 3.54133
777995 4.03153
778968 4.33390
779942 4.46072
780918 4.41237
781896 4.33567
782876 3.64032
783858 3.42670
784841 3.25296
785827 2.99194
786814 3.06420
787803 3.50139
788794 3.91850
789787 3.86339
790781 4.00855
791778 3.88370
792776 3.24677
793777 3.43417
794779 3.31954
795783 3.62938
796789 4.54402
797797 4.59866
798807 3.90925
799819 3.75751
800833 3.87542
801848 3.78935
802866 3.59847
803885 3.47926
804907 3.86258
805930 3.55073
806956 3.08539
807983 3.36998
809012 3.65037
810044 4.12424
811077 4.12511
812112 3.81771
813149 3.56578
814188 3.09680
815230 3.34838
816273 3.91067
817318 4.16244
818365 4.39492
819414 4.23936
820466 4.17091
821519 4.01265
822574 4.43135
823632 4.03434
824691 3.73316
825752 3.44435
826816 3.23386
827881 3.12244
828949 3.65871
830018 3.59191
831090 3.74319
832164 4.06811
833240 4.01488
834318 3.41223
835398 4.23923
836480 4.07350
837564 3.54994
838651 3.55412
839739 3.53588
840830 3.41593
841923 3.61134
843018 3.33230
844115 3.12615
845214 3.34866
846315 3.99678
847419 3.58853
848524 3.16253
849632 3.85336
850742 4.11549
851854 3.34323
852968 3.07021
854085 3.21085
855203 3.44939
856324 3.12167
857448 3.09715
858573 3.63564
859700 3.52395
860830 3.87364
861962 4.44339
863096 4.03838
864233 3.91167
865372 3.95300
866513 3.77186
867656 3.90705
868801 4.15330
869949 4.28818
871099 3.92808
872251 3.79051
873406 3.24857
874563 3.51473
875722 3.67381
876884 3.79856
878048 3.59457
879214 3.47928
880382 3.43385
881553 3.67560
882726 3.77204
883902 3.96463
885079 4.05439
886260 4.00770
887442 3.61512
888627 2.67435
889815 3.54505
891004 4.02714
892196 4.29901
893391 4.08831
894588 3.46574
895787 3.12789
896989 3.41938
898193 3.25942
899399 3.44304
900000 3.48603
900000 3.48682
900608 3.53032
901820 3.59036
903034 3.52209
904250 3.80607
905469 3.60945
906690 3.83385
907914 4.00239
909140 3.96729
910369 3.75261
911600 3.24874
912833 3.37309
914070 3.33582
915308 3.02305
916550 3.69371
917793 4.12461
919040 3.39850
920288 2.86894
921540 3.24229
922794 3.60651
924050 3.38737
925309 4.40045
926571 4.45757
927835 4.56712
929102 4.29485
930371 4.26922
931643 3.65948
932918 3.04405
934195 2.58348
935475 3.01818
936758 3.46960
938043 3.86339
939331 3.74769
940621 3.59613
941914 2.91816
943210 3.14290
944508 3.33799
945810 3.36119
947114 3.99326
948420 3.98920
949729 3.56431
951041 3.56172
952356 3.31665
953673 3.72243
954994 3.63427
956316 3.30515
957642 3.13661
958970 3.23399
960302 3.87351
961635 3.37655
962972 3.02369
964312 3.86127
965654 3.61199
966999 3.31897
968347 2.95106
969698 3.04010
971052 3.28561
972408 3.30755
973767 3.14902
975129 2.66092
976494 3.46719
977420 3.23314
977862 3.12141
979233 3.46753
980607 4.18228
981983 4.17563
983363 4.28849
984745 3.94138
986130 3.19625
987518 3.20603
988909 3.28003
990303 2.80523
991700 3.38344
993100 3.64680
994503 3.28846
995909 3.47730
997318 3.85831
998730 3.74065
1.00000E+06 3.70051
1.00015E+06 3.69577
1.00156E+06 3.96572
1.00298E+06 4.29767
1.00441E+06 3.87271
1.00584E+06 4.22827
1.00727E+06 3.50084
1.00870E+06 2.80410
1.01013E+06 3.38622
1.01157E+06 3.25466
1.01302E+06 3.35747
1.01446E+06 3.47894
1.01591E+06 3.50714
1.01736E+06 3.48719
1.01882E+06 3.32095
1.02027E+06 3.90389
1.02173E+06 3.62376
1.02320E+06 3.35515
1.02467E+06 3.68559
1.02614E+06 3.55759
1.02761E+06 2.87131
1.02909E+06 3.28552
1.03057E+06 3.15301
1.03205E+06 3.23900
1.03354E+06 3.52873
1.03503E+06 3.03576
1.03652E+06 3.60791
1.03801E+06 3.68431
1.03951E+06 3.87006
1.04102E+06 3.67757
1.04252E+06 4.01762
1.04403E+06 3.93784
1.04554E+06 3.60088
1.04706E+06 3.54638
1.04858E+06 3.75501
1.05010E+06 3.83531
1.05163E+06 3.87202
1.05315E+06 3.32857
1.05469E+06 3.20339
1.05622E+06 3.72022
1.05776E+06 3.57185
1.05930E+06 3.78043
1.06085E+06 3.87270
1.06240E+06 3.48285
1.06395E+06 3.07630
1.06551E+06 3.84609
1.06707E+06 3.98658
1.06863E+06 3.46647
1.07019E+06 3.46865
1.07176E+06 3.03853
1.07334E+06 3.17228
1.07491E+06 3.15552
1.07649E+06 3.33842
1.07808E+06 3.29506
1.07966E+06 2.92355
1.08125E+06 2.78077
1.08285E+06 2.93238
1.08445E+06 3.69120
1.08605E+06 3.60067
1.08765E+06 3.92802
1.08926E+06 3.89067
1.09087E+06 4.20681
1.09249E+06 3.48073
1.09411E+06 3.58564
1.09573E+06 4.37517
1.09736E+06 3.95196
1.09898E+06 3.49686
1.10062E+06 3.46991
1.10226E+06 3.65303
1.10390E+06 3.53561
1.10554E+06 3.14450
1.10719E+06 3.74232
1.10884E+06 3.78109
1.11050E+06 3.64037
1.11215E+06 3.10422
1.11382E+06 3.10441
1.11548E+06 3.09058
1.11715E+06 2.84447
1.11883E+06 3.51837
1.12051E+06 2.88949
1.12402E+06 3.09420
1.12500E+06 3.02460
1.12961E+06 2.69670
1.13000E+06 2.72060
1.13220E+06 2.85500
1.13243E+06 2.86930
1.13500E+06 3.18390
1.13525E+06 3.21440
1.14000E+06 3.07240
1.14500E+06 3.11010
1.14809E+06 3.13340
1.15000E+06 3.28680
1.15242E+06 3.48090
1.15500E+06 3.40130
1.16000E+06 3.24700
1.16115E+06 3.21150
1.16500E+06 3.00820
1.17000E+06 2.74420
1.17500E+06 2.97270
1.17891E+06 3.15140
1.18000E+06 3.23770
1.18191E+06 3.38860
1.18500E+06 3.13950
1.18643E+06 3.02420
1.19000E+06 3.16441
1.19403E+06 3.41130
1.19500E+06 3.40430
1.20000E+06 3.36820
1.20324E+06 3.34430
1.20788E+06 2.94280
1.22000E+06 3.15880
1.22356E+06 3.22170
1.22991E+06 3.22140
1.23471E+06 3.29520
1.24000E+06 3.10410
1.24602E+06 3.03370
1.25000E+06 3.26720
1.25092E+06 3.32120
1.25914E+06 3.17070
1.26000E+06 3.18940
1.26411E+06 3.27910
1.27079E+06 3.13690
1.27415E+06 3.24350
1.28000E+06 2.90910
1.28090E+06 2.85771
1.28942E+06 3.24180
1.30000E+06 3.13230
1.30847E+06 3.04480
1.31198E+06 2.94920
1.31727E+06 3.15490
1.32000E+06 3.12420
1.32437E+06 3.07460
1.32794E+06 2.94610
1.33333E+06 3.00120
1.34000E+06 3.02340
1.34710E+06 3.04660
1.34830E+06 3.05213
1.35000E+06 3.05980
1.36262E+06 3.15780
1.37000E+06 2.95001
1.37009E+06 2.94740
1.37762E+06 3.27610
1.38000E+06 3.22160
1.38522E+06 3.10190
1.39673E+06 3.15650
1.40000E+06 3.06190
1.40449E+06 2.93080
1.41822E+06 2.96800
1.42218E+06 3.18250
1.43215E+06 2.94190
1.43450E+06 2.93940
1.43460E+06 2.93950
1.43463E+06 2.93947
1.44223E+06 2.94236
1.45000E+06 2.74307
1.45037E+06 2.73326
1.45652E+06 2.95798
1.46271E+06 3.25068
1.48362E+06 2.97049
1.49211E+06 3.07259
1.49853E+06 3.00420
1.50000E+06 3.03550
1.50480E+06 3.13260
1.50715E+06 3.18200
1.51367E+06 2.93991
1.52242E+06 3.00250
1.52682E+06 3.11630
1.54688E+06 3.07890
1.55000E+06 3.02870
1.55366E+06 2.96760
1.56734E+06 3.08830
1.57160E+06 2.97310
1.57180E+06 2.96780
1.57425E+06 2.90400
1.58121E+06 2.96520
1.58587E+06 2.81390
1.59762E+06 2.93810
1.60000E+06 2.93680
1.61189E+06 2.91760
1.62393E+06 3.09350
1.63365E+06 3.02080
1.64101E+06 2.85430
1.64800E+06 2.99390
1.65000E+06 3.03460
1.65089E+06 3.05260
1.65836E+06 2.97020
1.69907E+06 2.92000
1.70000E+06 2.94950
1.70688E+06 3.16470
1.71211E+06 3.04270
1.71736E+06 2.83500
1.74220E+06 3.04220
1.74400E+06 3.05720
1.75000E+06 3.15030
1.75160E+06 3.13920
1.75180E+06 3.13780
1.77403E+06 2.98730
1.78235E+06 3.09360
1.79635E+06 2.98860
1.80000E+06 2.99030
1.82198E+06 2.99670
1.83064E+06 2.94960
1.83645E+06 3.06990
1.84816E+06 2.91050
1.85000E+06 2.91790
1.89002E+06 3.07440
1.89080E+06 3.06990
1.89083E+06 3.06971
1.89470E+06 3.04738
1.90000E+06 3.02119
1.92080E+06 3.13818
1.93332E+06 3.05649
1.94279E+06 3.10159
1.95000E+06 3.08259
1.95233E+06 3.07549
2.00000E+06 3.07120
2.04320E+06 3.06180
2.04323E+06 3.06178
2.09510E+06 3.05059
2.10000E+06 3.04950
2.11440E+06 3.05140
2.12500E+06 3.05270
2.12650E+06 3.05290
2.12655E+06 3.05289
2.20000E+06 3.06239
2.22000E+06 3.06779
2.24340E+06 3.07379
2.30000E+06 3.08820
2.37450E+06 3.10580
2.40000E+06 3.11180
2.44360E+06 3.12281
2.50000E+06 3.13700
2.53700E+06 3.14630
2.53702E+06 3.14630
2.54620E+06 3.14860
2.57660E+06 3.15620
2.57665E+06 3.15621
2.60000E+06 3.16210
2.70000E+06 3.17290
2.73920E+06 3.18980
2.73921E+06 3.18980
2.76050E+06 3.19890
2.76055E+06 3.19891
2.80000E+06 3.21589
2.82460E+06 3.22449
2.85100E+06 3.23380
2.90000E+06 3.25100
2.90380E+06 3.25230
2.90381E+06 3.25230
2.93530E+06 3.26271
2.93531E+06 3.26271
2.93630E+06 3.26299
2.93632E+06 3.26299
3.00000E+06 3.28409
3.10000E+06 3.31219
3.20000E+06 3.34849
3.30000E+06 3.37260
3.40000E+06 3.39910
3.50000E+06 3.42600
3.60000E+06 3.46100
3.70000E+06 3.49651
3.75000E+06 3.51651
3.80000E+06 3.53651
3.95980E+06 3.59301
4.00000E+06 3.60730
4.04930E+06 3.62471
4.16090E+06 3.64540
4.28380E+06 3.68150
4.41180E+06 3.69260
4.50000E+06 3.71030
4.54170E+06 3.71860
4.67820E+06 3.74080
4.82100E+06 3.76490
4.97140E+06 3.78830
5.00000E+06 3.79030
5.12800E+06 3.79909
5.28830E+06 3.81410
5.46940E+06 3.82190
5.50000E+06 3.82290
5.64700E+06 3.82750
5.83690E+06 3.82681
5.86960E+06 3.82560
6.00000E+06 3.82090
6.03670E+06 3.81950
6.22010E+06 3.81960
6.22013E+06 3.81960
6.23510E+06 3.81961
6.47980E+06 3.80950
6.50000E+06 3.80780
6.70520E+06 3.79000
6.95430E+06 3.76880
7.00000E+06 3.76500
7.19980E+06 3.74820
7.49150E+06 3.71679
7.50000E+06 3.71610
7.75000E+06 3.69460
7.78190E+06 3.69189
8.00000E+06 3.66311
8.10810E+06 3.64891
8.43020E+06 3.62750
8.50000E+06 3.62090
8.77450E+06 3.59490
9.00000E+06 3.56210
9.14190E+06 3.54140
9.50000E+06 3.50580
9.54710E+06 3.50110
9.69420E+06 3.49200
9.69423E+06 3.49200
9.97240E+06 3.47469
1.00000E+07 3.47010
1.04160E+07 3.40010
1.09020E+07 3.34291
1.10000E+07 3.33200
1.10260E+07 3.32912
1.10280E+07 3.32887
1.10280E+07 3.32887
1.13000E+07 3.29860
1.14090E+07 3.28650
1.15000E+07 3.26850
1.17000E+07 3.22890
1.19000E+07 3.18931
1.19750E+07 3.17460
1.20000E+07 3.17110
1.22500E+07 3.13760
1.25000E+07 3.10409
1.25800E+07 3.09340
1.27500E+07 3.07520
1.30000E+07 3.04860
1.32290E+07 3.02410
1.32500E+07 3.02080
1.35000E+07 2.98170
1.37500E+07 2.94260
1.39280E+07 2.91480
1.40000E+07 2.90930
1.41000E+07 2.90160
1.42500E+07 2.89010
1.45000E+07 2.87100
1.46000E+07 2.86333
1.46720E+07 2.85780
1.47500E+07 2.84870
1.48000E+07 2.84290
1.50000E+07 2.81950
1.52500E+07 2.79040
1.54840E+07 2.76310
1.55000E+07 2.76140
1.57500E+07 2.73450
1.60000E+07 2.70750
1.62500E+07 2.68060
1.63950E+07 2.66500
1.65000E+07 2.65810
1.67500E+07 2.64160
1.70000E+07 2.62510
1.72500E+07 2.60860
1.73590E+07 2.60140
1.75000E+07 2.59530
1.77500E+07 2.58440
1.80000E+07 2.57350
1.82500E+07 2.56260
1.84140E+07 2.55550
1.85000E+07 2.54960
1.87500E+07 2.53260
1.90000E+07 2.51560
1.92500E+07 2.49860
1.95000E+07 2.48160
1.95790E+07 2.47620
1.97500E+07 2.46170
2.00000E+07 2.44050
2.00000E+07 2.47195
2.00560E+07 2.47052
2.07834E+07 2.45229
2.09856E+07 2.44733
2.10000E+07 2.44698
2.20000E+07 2.42327
2.23777E+07 2.41453
2.27024E+07 2.40706
2.27081E+07 2.40693
2.30000E+07 2.40042
2.32368E+07 2.39587
2.33147E+07 2.39464
2.40000E+07 2.38850
2.41970E+07 2.38797
2.50000E+07 2.38850
2.52015E+07 2.38906
2.60000E+07 2.39247
2.69166E+07 2.39946
2.70000E+07 2.40020
2.78864E+07 2.40910
2.80000E+07 2.41035
2.90000E+07 2.42243
3.00000E+07 2.43619
3.04444E+07 2.44269
3.10000E+07 2.45114
3.14320E+07 2.45804
3.16737E+07 2.46207
3.19530E+07 2.46689
3.20000E+07 2.46772
3.22141E+07 2.47157
3.23957E+07 2.47494
3.25000E+07 2.47692
3.28748E+07 2.48428
3.30000E+07 2.48681
3.40000E+07 2.50759
3.40858E+07 2.50937
3.50000E+07 2.52759
3.60000E+07 2.54609
3.67600E+07 2.55967
3.70000E+07 2.56386
3.70307E+07 2.56439
3.76279E+07 2.57460
3.80000E+07 2.58081
3.90000E+07 2.59689
3.99465E+07 2.61126
4.00000E+07 2.61205
4.10000E+07 2.62550
4.16979E+07 2.63363
4.20000E+07 2.63689
4.21762E+07 2.63872
4.26754E+07 2.64368
4.30000E+07 2.64674
4.35329E+07 2.65153
4.40000E+07 2.65554
4.46442E+07 2.66085
4.50000E+07 2.66371
4.60000E+07 2.67098
4.70000E+07 2.67698
4.70051E+07 2.67701
4.80000E+07 2.68193
4.90000E+07 2.68606
4.94455E+07 2.68768
5.00000E+07 2.68954
5.10000E+07 2.69228
5.17595E+07 2.69348
5.20000E+07 2.69366
5.20857E+07 2.69370
5.30000E+07 2.69314
5.34360E+07 2.69220
5.40000E+07 2.69025
5.50000E+07 2.68457
5.53484E+07 2.68198
5.60000E+07 2.67669
5.70000E+07 2.66767
5.71259E+07 2.66647
5.80000E+07 2.65784
5.90000E+07 2.64749
5.98575E+07 2.63840
6.00000E+07 2.63688
6.07796E+07 2.62858
6.10000E+07 2.62623
6.13201E+07 2.62283
6.20000E+07 2.61558
6.30000E+07 2.60488
6.40000E+07 2.59410
6.41470E+07 2.59251
6.50000E+07 2.58323
6.52945E+07 2.57999
6.60000E+07 2.57203
6.70000E+07 2.56024
6.79805E+07 2.54803
6.80000E+07 2.54778
6.90000E+07 2.53460
6.92526E+07 2.53115
7.00000E+07 2.52064
7.10000E+07 2.50562
7.20000E+07 2.48949
7.30000E+07 2.47253
7.40000E+07 2.45502
7.50000E+07 2.43718
7.60000E+07 2.41941
7.60458E+07 2.41860
7.70000E+07 2.40174
7.80000E+07 2.38391
7.90000E+07 2.36566
8.00000E+07 2.34677
8.10000E+07 2.32752
8.20000E+07 2.30840
8.30000E+07 2.28959
8.40000E+07 2.27120
8.50000E+07 2.25337
8.60000E+07 2.23615
8.70000E+07 2.21942
8.80000E+07 2.20305
8.90000E+07 2.18692
9.00000E+07 2.17091
9.10000E+07 2.15484
9.20000E+07 2.13849
9.30000E+07 2.12172
9.40000E+07 2.10442
9.50000E+07 2.08646
9.60000E+07 2.06821
9.70000E+07 2.05010
9.80000E+07 2.03218
9.90000E+07 2.01448
1.00000E+08 1.99704
1.02000E+08 1.96308
1.04000E+08 1.93032
1.06000E+08 1.89864
1.08000E+08 1.86792
1.10000E+08 1.83807
1.12000E+08 1.80867
1.14000E+08 1.77968
1.16000E+08 1.75151
1.18000E+08 1.72451
1.20000E+08 1.69897
1.22000E+08 1.67467
1.24000E+08 1.65116
1.26000E+08 1.62837
1.28000E+08 1.60624
1.30000E+08 1.58471
1.32000E+08 1.56373
1.34000E+08 1.54330
1.36000E+08 1.52342
1.38000E+08 1.50411
1.40000E+08 1.48536
1.42000E+08 1.46739
1.44000E+08 1.45029
1.46000E+08 1.43392
1.48000E+08 1.41816
1.50000E+08 1.40289