Cu-65(n,tot) ENDF/B-VII.1
Energy(eV) XS(b)
1.00000E-05 121.854
1.25000E-05 110.445
1.50000E-05 102.023
2.00000E-05 90.2015
2.75000E-05 78.9533
3.50000E-05 71.5505
4.25000E-05 66.2064
5.00000E-05 62.1152
6.25000E-05 57.0129
7.50000E-05 53.2465
0.000100000 47.9597
0.000125000 44.3519
0.000150000 41.6886
0.000200000 37.9503
0.000275000 34.3933
0.000350000 32.0524
0.000425000 30.3624
0.000500000 29.0686
0.000625000 27.4551
0.000750000 26.2641
0.00100000 24.5923
0.00125000 23.4514
0.00150000 22.6092
0.00200000 21.4270
0.00275000 20.3022
0.00350000 19.5619
0.00425000 19.0275
0.00500000 18.6184
0.00625000 18.1081
0.00750000 17.7315
0.0100000 17.2028
0.0125000 16.8420
0.0150000 16.5756
0.0200000 16.2017
0.0253000 15.9337
0.0253000 15.9337
0.0253001 15.9337
0.0253001 15.9337
0.0253002 15.9337
0.0253004 15.9337
0.0253008 15.9337
0.0253015 15.9336
0.0253030 15.9336
0.0253061 15.9335
0.0253121 15.9332
0.0253241 15.9327
0.0253483 15.9317
0.0253965 15.9296
0.0254930 15.9256
0.0256860 15.9175
0.0260719 15.9017
0.0268438 15.8710
0.0283875 15.8135
0.0314750 15.7114
0.0376500 15.5463
0.0500000 15.3133
0.0625000 15.1518
0.0750000 15.0326
0.100000 14.8653
0.125000 14.7510
0.150000 14.6665
0.200000 14.5479
0.275000 14.4349
0.350000 14.3602
0.500000 14.2647
0.750000 14.1741
1.00000 14.1193
1.50000 14.0528
2.00000 14.0116
2.75000 13.9704
3.50000 13.9414
5.00000 13.9003
7.50000 13.8537
10.0000 13.8185
15.0000 13.7619
20.0000 13.7137
27.5000 13.6483
35.0000 13.5874
50.0000 13.4725
75.0000 13.2919
100.000 13.1190
150.000 12.7826
175.000 12.6080
187.500 12.5116
200.000 12.3979
207.467 12.3101
211.201 12.2543
214.935 12.1838
218.668 12.0872
220.535 12.0223
222.402 11.9403
223.335 11.8912
224.269 11.8366
225.202 11.7797
226.135 11.7339
226.602 11.7286
227.069 11.7551
227.536 11.8537
228.002 12.1270
228.236 12.4079
228.469 12.8847
228.702 13.7318
228.936 15.3444
229.169 18.7687
229.286 22.0088
229.402 27.4291
229.519 37.2931
229.636 57.4042
229.694 75.8283
229.752 105.446
229.811 155.360
229.840 192.635
229.869 241.044
229.902 310.760
229.935 392.071
230.000 504.191
230.033 483.654
230.066 420.469
230.131 276.908
230.197 180.517
230.263 125.171
230.329 92.6032
230.395 72.3203
230.461 58.9663
230.526 49.7440
230.658 38.1991
230.790 31.4958
230.922 27.2461
231.185 22.3247
231.449 19.6539
231.712 18.0230
231.976 16.9416
232.239 16.1812
232.767 15.1951
233.294 14.5921
233.821 14.1894
234.348 13.9032
235.402 13.5256
236.456 13.2884
237.510 13.1258
238.565 13.0071
240.673 12.8443
242.781 12.7365
246.998 12.5984
251.215 12.5094
255.431 12.4438
263.865 12.3465
280.732 12.2072
297.598 12.0955
365.066 11.7262
500.000 11.1016
750.000 10.1220
999.999 9.27915
1000.00 9.27914
1000.01 9.27912
1000.01 9.27910
1000.02 9.27907
1000.05 9.27900
1000.09 9.27886
1000.18 9.27858
1000.36 9.27801
1000.71 9.27689
1001.42 9.27463
1002.83 9.27013
1005.65 9.26114
1011.31 9.24317
1022.61 9.20735
1045.23 9.13611
1090.45 8.99511
1180.90 8.71759
1271.34 8.44159
1316.57 8.29741
1327.87 8.25768
1339.18 8.21257
1344.83 8.18527
1347.66 8.16919
1350.48 8.15046
1353.31 8.12795
1354.72 8.11518
1356.14 8.10250
1357.55 8.09527
1358.26 8.10017
1358.96 8.12312
1359.32 8.14997
1359.67 8.19787
1360.02 8.28596
1360.38 8.45770
1360.73 8.82888
1360.91 9.18220
1361.08 9.77003
1361.26 10.8396
1361.44 12.9793
1361.52 14.9299
1361.61 17.9847
1361.70 23.0053
1361.79 31.3672
1361.89 47.0714
1362.00 59.0634
1362.11 50.7408
1362.21 35.9378
1362.29 28.1039
1362.37 22.8539
1362.45 19.3427
1362.52 16.9352
1362.68 13.9905
1362.84 12.3531
1362.99 11.3416
1363.15 10.6765
1363.46 9.88160
1363.77 9.43547
1364.08 9.15868
1364.39 8.97228
1364.70 8.84042
1365.33 8.66749
1365.95 8.56067
1366.57 8.48872
1367.20 8.43720
1368.44 8.36816
1369.69 8.32385
1372.18 8.26918
1374.67 8.23533
1377.16 8.21114
1382.14 8.17630
1387.13 8.14999
1392.11 8.12773
1402.07 8.08902
1441.94 7.95707
1521.66 7.71040
1681.11 7.20505
1840.55 6.64184
2000.00 5.95081
2130.00 5.18742
2195.00 4.67701
2260.00 4.01815
2292.50 3.60773
2325.00 3.12487
2357.50 2.55642
2390.00 1.90961
2406.25 1.58323
2422.50 1.30756
2438.75 1.20011
2446.88 1.29262
2455.00 1.57584
2463.13 2.18789
2471.25 3.38545
2479.38 5.67568
2483.44 7.52979
2487.50 10.1434
2491.56 13.8881
2495.63 19.3640
2499.69 27.5908
2503.75 40.3613
2507.81 61.0146
2511.88 96.0122
2515.94 158.237
2520.00 271.157
2524.50 478.843
2529.00 648.014
2533.50 558.214
2538.00 379.638
2542.72 250.604
2547.44 175.465
2552.15 130.557
2556.87 102.096
2561.59 83.0093
2566.30 69.5865
2575.74 52.3344
2585.17 41.9723
2594.61 35.1873
2613.48 26.9913
2632.34 22.3026
2651.21 19.3018
2670.08 17.2286
2688.95 15.7145
2726.69 13.6537
2764.43 12.3143
2802.16 11.3694
2839.90 10.6623
2915.38 9.66087
2990.85 8.96834
3066.33 8.44338
3104.06 8.21801
3122.93 8.10616
3127.65 8.07536
3132.37 8.03969
3134.72 8.01734
3137.08 7.98749
3138.26 7.96690
3139.44 7.94045
3140.03 7.92712
3140.62 7.92804
3140.92 7.95531
3141.21 8.05796
3141.36 8.19376
3141.51 8.48384
3141.65 9.17662
3141.73 9.87696
3141.80 11.0134
3141.90 13.5775
3142.00 15.8899
3142.10 15.0506
3142.20 12.8858
3142.31 11.1774
3142.42 10.2007
3142.53 9.62166
3142.64 9.25642
3142.86 8.83859
3143.08 8.61741
3143.52 8.39492
3143.97 8.28662
3144.85 8.18180
3145.73 8.13023
3147.49 8.07684
3149.26 8.04687
3152.79 8.00897
3156.31 7.98165
3170.43 7.89852
3198.65 7.75916
3255.09 7.50850
3367.99 7.05957
3480.88 6.64126
3537.33 6.43224
3565.55 6.32323
3572.60 6.29414
3579.66 6.26338
3583.19 6.24763
3586.72 6.23515
3588.48 6.23685
3590.24 6.26796
3591.13 6.32761
3591.57 6.39227
3592.01 6.51305
3592.45 6.76544
3592.67 7.00315
3592.89 7.39869
3593.11 8.12348
3593.22 8.72218
3593.33 9.61079
3593.44 10.9920
3593.55 13.2565
3593.66 17.1788
3593.77 24.1632
3593.89 35.8224
3594.00 44.3958
3594.12 37.7000
3594.23 26.4506
3594.31 20.9796
3594.38 17.2169
3594.54 12.8643
3594.69 10.6320
3594.84 9.36579
3595.00 8.58475
3595.15 8.07026
3595.45 7.45543
3595.76 7.11448
3596.07 6.90453
3596.68 6.66741
3597.29 6.54114
3597.90 6.46470
3599.13 6.37792
3601.58 6.29956
3604.03 6.26123
3608.92 6.21781
3613.82 6.18874
3623.62 6.14314
3633.41 6.10339
3672.60 5.96270
3711.78 5.85004
3750.96 5.80866
3790.14 5.99026
3809.73 6.31127
3829.33 7.02323
3848.92 8.67575
3858.71 10.2985
3868.51 13.0537
3878.30 18.0763
3888.10 28.1760
3893.00 37.2108
3897.90 51.3740
3902.79 74.3936
3907.69 112.338
3920.00 253.910
3926.16 221.161
3932.31 148.842
3936.58 111.134
3940.84 85.0019
3945.11 67.0637
3949.37 54.5154
3957.91 38.8402
3966.44 29.8890
3974.97 24.3120
3983.50 20.5948
4000.56 16.0665
4017.63 13.4799
4034.69 11.8356
4068.82 9.88563
4102.94 8.76463
4137.07 8.02026
4171.19 7.47019
4205.32 7.02675
4273.57 6.28148
4307.70 5.92432
4341.83 5.55120
4375.95 5.16209
4393.02 4.98651
4410.08 4.88976
4427.14 5.07430
4435.67 5.46704
4444.20 6.36832
4452.74 8.45809
4457.00 10.4652
4461.27 13.7600
4465.53 19.4420
4469.80 29.8721
4474.07 50.4552
4476.20 67.9521
4478.33 93.1403
4482.17 161.706
4486.00 221.364
4489.84 195.125
4493.67 134.856
4497.63 90.9044
4501.58 65.0067
4505.54 49.4483
4509.49 39.5659
4513.45 32.9289
4517.41 28.2567
4525.32 22.2472
4533.23 18.6334
4541.14 16.2635
4556.96 13.3918
4572.79 11.7390
4588.61 10.6726
4620.25 9.37888
4651.90 8.61642
4683.54 8.10595
4746.84 7.44595
4810.13 7.01737
4873.42 6.70080
5000.00 6.23127
5214.45 5.64284
5428.90 5.13536
5643.35 4.61649
5750.57 4.32729
5804.18 4.16665
5830.99 4.07548
5837.69 4.04864
5844.39 4.01636
5847.74 3.99537
5851.09 3.96623
5852.77 3.94527
5854.44 3.91667
5855.28 3.90038
5856.12 3.89525
5856.54 3.91848
5856.96 4.02422
5857.17 4.17997
5857.38 4.55189
5857.48 4.93570
5857.58 5.60588
5857.69 6.87342
5857.79 9.30912
5857.90 13.5225
5858.00 17.1420
5858.10 15.5251
5858.21 11.8587
5858.28 9.80761
5858.36 8.40854
5858.51 6.76341
5858.66 5.91217
5858.81 5.42345
5859.11 4.90358
5859.41 4.64535
5860.02 4.39769
5860.62 4.28155
5861.82 4.17167
5863.03 4.11875
5865.44 4.06494
5867.85 4.03534
5872.67 3.99864
5877.49 3.97256
5887.14 3.93026
5896.78 3.89242
5935.36 3.74730
6012.50 3.43344
6089.65 3.05819
6128.23 2.83650
6147.51 2.71290
6157.16 2.64435
6161.98 2.60442
6164.39 2.58395
6165.59 2.60080
6166.20 2.71966
6166.50 3.02501
6166.65 3.48941
6166.80 4.65946
6166.90 6.17767
6167.00 7.40269
6167.10 6.70686
6167.20 5.33712
6167.33 4.20548
6167.46 3.62416
6167.71 3.12222
6168.21 2.81888
6169.23 2.67371
6171.25 2.60266
6175.30 2.55064
6183.40 2.48217
6199.59 2.35579
6231.98 2.08778
6264.37 1.78799
6272.47 1.70651
6280.56 1.62040
6284.61 1.57472
6288.66 1.52852
6290.69 1.51022
6292.71 1.51713
6293.72 1.56299
6294.23 1.62133
6294.73 1.73869
6295.24 1.99846
6295.49 2.25118
6295.75 2.68430
6296.00 3.49597
6296.13 4.18765
6296.25 5.22646
6296.38 6.89422
6296.50 9.69253
6296.63 14.7861
6296.76 24.2725
6296.88 39.4209
6297.00 51.0475
6297.12 42.8949
6297.24 28.3208
6297.32 21.7182
6297.39 17.0395
6297.54 11.2640
6297.68 8.14992
6297.83 6.32412
6297.98 5.17170
6298.13 4.39960
6298.42 3.46290
6298.71 2.93166
6299.01 2.60018
6299.59 2.22077
6300.77 1.88859
6301.94 1.74212
6304.29 1.60473
6306.64 1.53410
6311.34 1.45012
6316.04 1.39277
6334.83 1.25251
6353.63 1.25403
6372.42 1.57306
6381.82 1.98971
6391.22 2.74192
6400.61 4.09070
6410.01 6.56207
6419.41 11.3099
6424.11 15.2903
6428.81 21.1367
6433.51 29.9646
6438.20 43.6795
6442.90 65.5367
6447.60 100.536
6454.30 180.667
6461.00 253.519
6462.79 256.665
6463.00 256.297
6463.21 256.183
6463.91 254.445
6464.61 251.378
6466.01 242.167
6468.81 215.709
6474.41 157.674
6481.25 106.456
6488.08 75.7666
6494.92 57.1085
6501.76 45.1493
6508.59 37.0608
6515.43 31.3324
6529.10 23.9111
6542.78 19.4101
6556.45 16.4360
6570.12 14.3406
6576.96 13.5075
6580.38 13.1277
6582.09 12.9507
6582.94 12.9081
6583.37 13.0261
6583.58 13.3257
6583.69 13.7037
6583.80 14.4523
6583.90 15.7029
6584.00 16.7472
6584.10 16.2188
6584.20 15.0819
6584.37 13.9607
6584.53 13.4598
6584.86 13.0602
6585.52 12.7969
6586.84 12.5844
6589.47 12.3094
6594.74 11.8510
6605.28 11.0716
6626.35 9.85981
6668.50 8.25020
6710.65 7.21318
6731.73 6.81309
6742.26 6.62894
6747.53 6.53218
6750.17 6.47206
6751.48 6.43434
6752.14 6.44216
6752.47 6.55036
6752.64 6.77213
6752.80 7.46516
6753.00 9.32484
6753.20 8.33521
6753.33 7.62871
6753.46 7.24690
6753.72 6.89959
6754.23 6.67003
6755.26 6.54149
6757.32 6.45846
6761.44 6.37430
6769.67 6.24724
6786.15 6.02564
6819.10 5.64004
6884.99 5.00625
6950.89 4.47314
6983.83 4.21607
6992.07 4.14629
7000.31 4.06628
7004.43 4.01637
7008.54 3.94854
7010.60 3.89909
7012.66 3.82597
7013.69 3.77415
7014.72 3.71523
7015.24 3.70235
7015.75 3.77747
7016.01 3.94533
7016.27 4.42501
7016.40 4.97704
7016.52 6.03009
7016.65 8.23376
7016.78 13.0378
7016.89 20.7074
7017.00 27.7114
7017.11 25.2386
7017.22 18.6939
7017.29 15.2355
7017.37 12.7458
7017.52 9.71486
7017.66 8.05496
7017.81 7.07189
7018.11 5.99837
7018.40 5.44848
7018.99 4.91025
7019.58 4.65244
7020.76 4.40537
7021.94 4.28512
7024.30 4.16260
7026.66 4.09576
7031.38 4.01466
7036.09 3.95885
7045.53 3.87170
7054.97 3.79665
7092.72 3.52686
7168.21 3.00965
7243.71 2.47479
7319.20 1.89938
7394.70 1.27724
7432.44 0.963071
7470.19 0.686817
7489.06 0.593048
7507.94 0.568400
7526.81 0.682161
7536.25 0.833310
7545.69 1.08949
7555.12 1.50718
7564.56 2.18151
7574.00 3.28088
7583.43 5.12057
7592.87 8.33138
7602.31 14.2725
7607.03 19.1240
7611.74 26.0739
7616.46 36.1629
7621.18 50.7923
7638.00 128.657
7642.21 128.801
7646.41 115.892
7654.82 79.9423
7661.61 57.8294
7668.39 43.1405
7675.18 33.4649
7681.97 26.9252
7695.54 19.0926
7709.12 14.9135
7736.26 11.4071
7763.41 11.3398
7790.56 14.2972
7817.71 22.0282
7831.28 29.0700
7844.85 39.6822
7858.43 55.6985
7872.00 79.6157
7896.50 147.827
7921.00 210.643
7945.50 191.473
7970.00 137.622
7997.48 93.7518
8024.97 67.9851
8052.45 52.4786
8079.93 42.5511
8107.42 35.8106
8134.90 31.0030
8189.86 24.6943
8244.83 20.7920
8299.79 18.1601
8354.76 16.2604
8382.24 15.4703
8389.11 15.2735
8395.98 15.0607
8399.42 14.9368
8402.86 14.7811
8404.57 14.6779
8406.29 14.5443
8407.15 14.4689
8408.01 14.4333
8408.44 14.5062
8408.87 14.8534
8409.08 15.3466
8409.30 16.4497
8409.40 17.5136
8409.51 19.2369
8409.62 22.1413
8409.73 27.0918
8409.86 37.7304
8410.00 47.5376
8410.14 44.3055
8410.28 35.3417
8410.37 30.5743
8410.46 27.1253
8410.64 22.9007
8410.83 20.5781
8411.01 19.1950
8411.38 17.6782
8411.74 16.8958
8412.48 16.1218
8413.21 15.7443
8414.68 15.3705
8416.15 15.1776
8419.08 14.9611
8422.02 14.8252
8427.89 14.6315
8433.76 14.4771
8445.50 14.2124
8457.24 13.9759
8504.21 13.1680
8598.14 11.9387
8786.01 10.3240
8973.88 9.28164
9067.81 8.85996
9091.30 8.75221
9114.78 8.63119
9126.52 8.55653
9132.39 8.51082
9138.26 8.45424
9144.13 8.37665
9147.07 8.32268
9150.00 8.24942
9152.94 8.13962
9154.41 8.05917
9155.87 7.94759
9157.34 7.78066
9158.08 7.66175
9158.81 7.50503
9159.54 7.29382
9160.28 7.02742
9160.64 6.92277
9161.01 7.03692
9161.20 7.40434
9161.38 8.41897
9161.47 9.48127
9161.56 11.2652
9161.65 14.3855
9161.74 19.7919
9161.81 25.4688
9161.87 32.9212
9162.00 46.7494
9162.13 45.0556
9162.26 35.2333
9162.36 28.4525
9162.47 23.7965
9162.58 20.5893
9162.68 18.3671
9162.89 15.5473
9163.11 13.8961
9163.53 12.1055
9163.96 11.1789
9164.38 10.6188
9164.81 10.2471
9165.66 9.78687
9166.51 9.51321
9167.36 9.33201
9169.07 9.10544
9170.77 8.96772
9172.47 8.87366
9175.88 8.74935
9179.28 8.66620
9182.69 8.60220
9189.50 8.49700
9196.31 8.39206
9199.71 8.32881
9203.12 8.24809
9206.52 8.13188
9208.22 8.04804
9209.93 7.93217
9211.63 7.75815
9212.48 7.63302
9213.33 7.46542
9214.18 7.23286
9215.03 6.91602
9215.46 6.75628
9215.89 6.76713
9216.10 7.05373
9216.31 7.99313
9216.42 9.06118
9216.52 10.9686
9216.63 14.4799
9216.74 20.9853
9216.80 27.3540
9216.87 35.6076
9217.00 50.8592
9217.13 48.9812
9217.26 38.0783
9217.42 28.3918
9217.57 22.6227
9217.72 19.1332
9217.87 16.8916
9218.18 14.2741
9218.48 12.8389
9218.78 11.9501
9219.09 11.3516
9219.70 10.6034
9220.30 10.1579
9220.91 9.86354
9222.13 9.49948
9223.34 9.28258
9224.56 9.13831
9226.99 8.95665
9229.42 8.84531
9231.85 8.76869
9236.71 8.66708
9241.58 8.59976
9246.44 8.54964
9256.16 8.47545
9275.61 8.37189
9295.06 8.29234
9372.85 8.04717
9528.44 7.66597
9684.03 7.34313
9722.92 7.26423
9761.82 7.17926
9781.27 7.12933
9790.99 7.09973
9800.72 7.06400
9810.44 7.01638
9815.30 6.98405
9820.16 6.94103
9825.03 6.87849
9827.46 6.83419
9829.89 6.77511
9832.32 6.69299
9834.75 6.57988
9835.97 6.52441
9837.18 6.55200
9837.79 6.72043
9838.40 7.32605
9838.70 8.12110
9839.01 9.84795
9839.16 11.4663
9839.31 14.0804
9839.46 18.4490
9839.61 25.7839
9839.81 41.3711
9840.00 55.9457
9840.19 51.1213
9840.39 37.4718
9840.54 29.0585
9840.70 23.4209
9840.86 19.6696
9841.01 17.1034
9841.32 13.9559
9841.64 12.1812
9841.95 11.0712
9842.26 10.3275
9842.88 9.41277
9843.51 8.88079
9844.13 8.53865
9845.38 8.12847
9846.62 7.89390
9847.87 7.74291
9850.36 7.56035
9852.86 7.45370
9855.35 7.38328
9860.34 7.29469
9865.33 7.23973
9870.32 7.20107
9880.29 7.14761
9890.27 7.10976
9900.24 7.07964
9920.19 7.03097
9960.10 6.95339
10000.0 6.88653
10143.9 6.67692
10287.7 6.49073
10575.4 6.15642
10863.1 5.85049
11006.9 5.69940
11078.9 5.61666
11096.8 5.59171
11114.8 5.56002
11123.8 5.53757
11132.8 5.50232
11137.3 5.47238
11141.8 5.41962
11144.0 5.37220
11146.3 5.28864
11147.4 5.21711
11148.5 5.10686
11149.1 5.03271
11149.7 4.96952
11149.9 4.98989
11150.2 5.18090
11150.4 5.47017
11150.5 6.10987
11150.6 7.60686
11150.8 11.4288
11150.9 17.8732
11151.0 23.9909
11151.1 23.0966
11151.2 18.1203
11151.4 14.0838
11151.5 11.6829
11151.7 9.16224
11152.0 8.01679
11152.2 7.41278
11152.7 6.77152
11153.2 6.45101
11154.2 6.13489
11155.2 5.98307
11157.1 5.83402
11159.1 5.76068
11163.0 5.68701
11167.0 5.64894
11174.8 5.60732
11182.7 5.58274
11198.5 5.55036
11214.2 5.52629
11245.7 5.48635
11277.2 5.45043
11403.1 5.31555
11654.9 5.04191
11906.8 4.73118
11969.7 4.63951
12032.7 4.53280
12064.2 4.46665
12079.9 4.42650
12095.6 4.37732
12111.4 4.31064
12119.3 4.26457
12127.1 4.20204
12135.0 4.10782
12138.9 4.03790
12142.9 3.93956
12146.8 3.78794
12148.8 3.67599
12150.7 3.52264
12152.7 3.29873
12153.7 3.14562
12154.7 2.95870
12155.7 2.74067
12156.6 2.59929
12157.1 2.74166
12157.6 3.53046
12157.9 4.67212
12158.1 7.02293
12158.2 9.33912
12158.4 12.6611
12158.5 17.8170
12158.6 25.8171
12158.7 35.4466
12158.8 47.7855
12159.0 69.9715
12159.1 71.2506
12159.2 65.4853
12159.4 47.8729
12159.5 37.8576
12159.7 31.0575
12159.9 22.4454
12160.2 17.4372
12160.5 14.4997
12160.7 12.4948
12161.0 11.1510
12161.5 9.41649
12162.0 8.34546
12162.6 7.64893
12163.6 6.78147
12164.7 6.27246
12165.7 5.93954
12167.8 5.53183
12169.9 5.29100
12172.0 5.13306
12176.2 4.93656
12180.4 4.81772
12184.6 4.73735
12193.0 4.63273
12201.5 4.56510
12209.9 4.51566
12226.7 4.44361
12243.5 4.38903
12260.3 4.34284
12294.0 4.26205
12428.5 3.96585
12563.1 3.62925
12697.6 3.19899
12832.2 2.60347
12899.4 2.20647
12966.7 1.71582
13034.0 1.12636
13067.6 0.824338
13101.3 0.599696
13118.1 0.577174
13134.9 0.690829
13143.3 0.833856
13151.7 1.06514
13160.1 1.42055
13168.5 1.95253
13176.9 2.73924
13185.4 3.89933
13193.8 5.61679
13202.2 8.18264
13210.6 12.0648
13219.0 18.0198
13227.4 27.2454
13235.8 41.4452
13250.4 82.0231
13265.0 122.745
13279.6 115.656
13294.2 85.0579
13296.5 80.6906
13297.0 79.6687
13297.6 78.7647
13297.9 78.4418
13298.2 78.4053
13298.5 79.2399
13298.6 80.6257
13298.7 83.7266
13298.9 88.8562
13299.0 93.4665
13299.1 91.1003
13299.3 85.9684
13299.4 83.1349
13299.5 80.9829
13299.7 78.4283
13299.9 76.9954
13300.1 76.0459
13300.5 74.7473
13300.8 73.8006
13301.6 72.2049
13302.4 70.8122
13305.6 65.8616
13312.0 57.5394
13324.7 45.2836
13337.4 36.9982
13350.1 31.1954
13375.5 23.8208
13400.9 19.4531
13426.3 16.6178
13451.7 14.6486
13502.4 12.1141
13553.2 10.5600
13604.0 9.50725
13654.8 8.73367
13680.2 8.39867
13686.6 8.31147
13692.9 8.21546
13699.3 8.10619
13700.9 8.09045
13702.4 8.13281
13703.2 8.24647
13704.0 8.60756
13704.4 9.08201
13704.8 10.1146
13705.0 11.1556
13705.2 12.9567
13705.4 16.2853
13705.6 22.5471
13706.0 43.0562
13706.2 39.2371
13706.4 28.8958
13706.5 24.0463
13706.6 20.3971
13706.9 15.9303
13707.1 13.5257
13707.3 12.1596
13707.8 10.6553
13708.3 9.90321
13709.2 9.19010
13710.2 8.86098
13712.0 8.55533
13713.9 8.40890
13717.7 8.25657
13721.4 8.16821
13729.0 8.04936
13736.5 7.95871
13751.5 7.80711
13766.6 7.67380
13796.7 7.43352
13811.7 7.31550
13819.3 7.24298
13823.0 7.18041
13824.9 7.11053
13825.9 7.04199
13826.3 7.03115
13826.6 7.15844
13826.8 8.03391
13827.0 10.5928
13827.2 9.78980
13827.5 8.37982
13827.8 7.90849
13828.3 7.57817
13829.4 7.39409
13831.6 7.29145
13835.9 7.22011
13844.7 7.14393
13862.2 7.02764
13897.1 6.82475
13967.0 6.46838
14001.9 6.30577
14036.9 6.14970
14071.8 5.98849
14080.5 5.93774
14089.3 5.86563
14093.6 5.80709
14098.0 5.70458
14100.2 5.61184
14102.4 5.44711
14103.5 5.30447
14104.6 5.07537
14105.1 4.90810
14105.7 4.72641
14105.9 4.68593
14106.2 4.86025
14106.5 5.95937
14106.6 7.83293
14106.7 12.1839
14106.9 20.2675
14107.0 29.7181
14107.1 29.2001
14107.3 23.3466
14107.4 18.7658
14107.5 15.5800
14107.7 12.0495
14108.0 10.2868
14108.2 9.27443
14108.7 8.18936
14109.2 7.63004
14110.1 7.06953
14111.1 6.79445
14113.0 6.52051
14114.9 6.38700
14118.7 6.25698
14122.6 6.19659
14130.2 6.15050
14137.9 6.15254
14153.2 6.26094
14168.5 6.56068
14183.8 7.25714
14191.4 7.91015
14199.1 8.95683
14206.8 10.7127
14214.4 13.8235
14222.1 19.7248
14229.7 31.5450
14244.0 73.0839
14247.6 74.6315
14251.2 68.5067
14258.3 48.7562
14262.9 38.4377
14267.5 30.9604
14276.6 21.8492
14285.8 16.9690
14294.9 14.1074
14304.1 12.2854
14313.2 11.0512
14331.6 9.51491
14349.9 8.61322
14368.2 8.02404
14386.5 7.60244
14395.6 7.41857
14400.2 7.30750
14402.5 7.21303
14403.7 7.12803
14404.2 7.10680
14404.5 7.25565
14404.7 7.57048
14404.8 8.53327
14405.0 11.8196
14405.2 10.6079
14405.4 9.05790
14405.6 8.40400
14406.0 7.88558
14406.8 7.57854
14408.5 7.40827
14411.7 7.29262
14418.3 7.17535
14431.3 7.01146
14457.5 6.76543
14509.7 6.42410
14562.0 6.18669
14614.3 6.00482
14718.8 5.73030
14823.4 5.51983
15032.4 5.18983
15241.5 4.91899
15450.6 4.67754
15555.1 4.56549
15659.7 4.46326
15764.2 4.38724
15816.5 4.37622
15868.7 4.41260
15921.0 4.56867
15947.1 4.75364
15973.3 5.10019
15999.4 5.79586
16012.5 6.41120
16025.5 7.36982
16038.6 8.94795
16051.7 11.7249
16064.7 17.0395
16077.8 27.9861
16100.0 64.1492
16105.6 65.8585
16111.1 60.3641
16122.2 41.7553
16132.6 28.5834
16142.9 20.6635
16153.3 15.9171
16163.6 12.9370
16174.0 10.9662
16184.3 9.60080
16205.0 7.88293
16225.7 6.87641
16246.4 6.22762
16267.1 5.76856
16277.4 5.56220
16282.6 5.42304
16285.2 5.28738
16286.5 5.15658
16287.1 5.13474
16287.5 5.41784
16287.6 6.03568
16287.8 7.97703
16287.9 10.9323
16288.0 14.1975
16288.1 13.9115
16288.2 11.6824
16288.3 9.69680
16288.5 8.50779
16288.7 7.29759
16289.2 6.40988
16290.2 5.91589
16292.1 5.65339
16296.0 5.49276
16303.8 5.35004
16319.4 5.17034
16350.5 4.91924
16412.8 4.59792
16475.2 4.39286
16537.5 4.24684
16662.1 4.04616
16724.4 3.96276
16740.0 3.93585
16755.6 3.89590
16763.4 3.86248
16771.2 3.80265
16775.1 3.74740
16779.0 3.64581
16780.9 3.55317
16782.8 3.39265
16783.8 3.25892
16784.8 3.06662
16785.3 2.95341
16785.8 2.90578
16786.0 3.01871
16786.3 3.46956
16786.5 5.06872
16786.6 7.11570
16786.7 11.1668
16786.9 20.0671
16787.0 28.7866
16787.1 29.7328
16787.1 27.7603
16787.3 21.5834
16787.4 16.8979
16787.5 13.9462
16787.7 10.4742
16787.9 8.64297
16788.2 7.56019
16788.6 6.35827
16789.1 5.74894
16789.9 5.12949
16790.8 4.82687
16792.6 4.52654
16794.4 4.38033
16797.9 4.23574
16801.5 4.16396
16808.6 4.09177
16815.7 4.05487
16829.9 4.01645
16844.1 3.99630
16900.9 3.97076
17014.5 4.03394
17241.6 4.76309
17355.2 5.78842
17468.8 7.87797
17582.4 12.2879
17639.2 16.1661
17696.0 21.8781
17741.3 28.1758
17764.0 31.9818
17775.3 34.0863
17778.2 34.6571
17781.0 35.2754
17782.4 35.6293
17783.8 36.0571
17785.3 36.7336
17786.0 37.4259
17786.3 38.0687
17786.7 39.1356
17786.8 39.2997
17787.0 36.7572
17787.1 34.1420
17787.2 32.2529
17787.3 31.8855
17787.6 33.1185
17787.8 33.9998
17788.3 34.9273
17788.8 35.4138
17789.2 35.7319
17790.2 36.1637
17791.2 36.4807
17793.1 36.9897
17795.0 37.4314
17802.7 39.0460
17818.0 42.1619
17848.7 48.2620
17910.0 57.5551
17968.8 59.0702
17998.3 57.0005
18005.6 56.2395
18013.0 55.3679
18016.6 54.8675
18020.3 54.2812
18022.2 53.9195
18024.0 53.4604
18024.9 53.1695
18025.8 52.8442
18026.3 52.7256
18026.8 52.8405
18027.0 53.2057
18027.2 54.1917
18027.4 56.8669
18027.6 59.5409
18027.7 64.3307
18027.8 75.9342
18028.0 88.9417
18028.2 87.4529
18028.3 78.5015
18028.5 70.4905
18028.7 65.6011
18028.9 62.6392
18029.1 60.8155
18029.5 58.5382
18029.8 57.3044
18030.6 55.9628
18031.3 55.2518
18032.8 54.4458
18034.3 53.9579
18037.3 53.2817
18040.3 52.7501
18046.3 51.8197
18052.3 50.9467
18076.2 47.5593
18124.0 41.1103
18247.9 28.4698
18309.8 24.2628
18340.8 22.5422
18356.3 21.7457
18364.0 21.3347
18367.9 21.0821
18369.8 20.8915
18370.8 20.7749
18371.3 20.8737
18371.5 21.3297
18371.7 22.0149
18371.8 23.7513
18371.9 26.7925
18372.0 29.9790
18372.1 29.6194
18372.2 27.2806
18372.4 25.1837
18372.5 23.9416
18372.7 22.7561
18373.2 21.8890
18374.3 21.3875
18376.3 21.0734
18380.3 20.7885
18388.5 20.3886
18404.7 19.6991
18437.2 18.4795
18502.1 16.4607
18632.0 13.5565
18761.9 11.5729
18826.8 10.7874
18859.3 10.4153
18867.4 10.3156
18875.5 10.2013
18879.6 10.1290
18883.6 10.0272
18885.7 9.94805
18887.7 9.81693
18888.7 9.70412
18889.7 9.51530
18890.7 9.13016
18891.3 8.81401
18891.5 8.82830
18891.6 9.19734
18891.8 10.4052
18891.9 13.4517
18892.0 17.5301
18892.1 18.5679
18892.2 17.0022
18892.5 14.1273
18892.8 12.7856
18893.3 11.6438
18894.3 10.9184
18895.3 10.6465
18896.3 10.5042
18898.3 10.3498
18900.4 10.2626
18904.4 10.1559
18908.5 10.0837
18916.6 9.97379
18924.7 9.88220
18957.2 9.56862
19022.1 9.02326
19151.9 8.07873
19281.8 7.23009
19314.2 7.01835
19346.7 6.79551
19362.9 6.67216
19379.1 6.52552
19387.3 6.42994
19395.4 6.29367
19399.4 6.18877
19403.5 6.02352
19405.5 5.89430
19407.5 5.71237
19408.6 5.61003
19409.6 5.58683
19410.1 5.73650
19410.6 6.31874
19410.8 7.10957
19411.1 8.69310
19411.3 12.2015
19411.5 15.6266
19411.6 20.7141
19411.8 34.6001
19412.0 48.5020
19412.2 46.1991
19412.4 34.5720
19412.6 27.8761
19412.7 23.1793
19413.0 17.4246
19413.3 14.2121
19413.5 12.3736
19414.1 10.3332
19414.7 9.29899
19415.8 8.25783
19416.9 7.75816
19419.2 7.27114
19421.5 7.03179
19426.0 6.78750
19430.6 6.65513
19439.6 6.49738
19448.7 6.39139
19466.9 6.22887
19485.0 6.09001
19557.6 5.57938
19630.2 5.05861
19702.9 4.50579
19775.5 3.95727
19811.8 3.74468
19848.1 3.68434
19884.4 4.03191
19902.5 4.54946
19920.7 5.52298
19938.9 7.30748
19957.0 10.5783
19975.2 16.6489
19993.3 27.9088
20016.7 54.4238
20040.0 83.1409
20063.4 81.1492
20086.7 61.9113
20100.8 51.6461
20115.0 43.6424
20143.2 32.8841
20171.5 26.4250
20185.7 24.1303
20192.7 23.1255
20196.3 22.6195
20198.0 22.3191
20198.9 22.1311
20199.3 22.0870
20199.6 22.2503
20199.8 23.2756
20200.0 26.5452
20200.2 25.5422
20200.5 23.8779
20200.7 23.2088
20201.2 22.6804
20202.2 22.2929
20204.3 21.9274
20208.3 21.4203
20216.4 20.5733
20232.5 19.1505
20264.8 16.9870
20329.4 14.2329
20393.9 12.5602
20458.5 11.4351
20523.1 10.6223
20587.6 10.0028
20652.2 9.50863
20684.5 9.28996
20700.6 9.17471
20708.7 9.09404
20712.8 9.01033
20714.8 8.90112
20715.8 8.77266
20716.3 8.69836
20716.5 8.78916
20716.8 9.88301
20717.0 13.4730
20717.2 12.6931
20717.5 10.7818
20717.8 10.1063
20718.4 9.63960
20719.5 9.37015
20721.8 9.22247
20726.4 9.12991
20735.5 9.04682
20753.8 8.93408
20790.3 8.74555
20863.4 8.41954
20936.5 8.12298
20954.8 8.04352
20973.1 7.94882
20982.2 7.88534
20991.3 7.79033
20995.9 7.71275
21000.5 7.58066
21002.8 7.46648
21005.0 7.27693
21006.2 7.12791
21007.3 6.92608
21007.9 6.82375
21008.5 6.81952
21009.0 7.47648
21009.3 9.03407
21009.6 13.7460
21009.8 21.3118
21010.0 29.8010
21010.2 29.4266
21010.4 23.9199
21010.6 18.5891
21010.9 15.3788
21011.4 12.2997
21011.9 10.9295
21012.4 10.1971
21013.4 9.42791
21014.4 9.03922
21016.4 8.65016
21018.3 8.45709
21022.3 8.26091
21026.3 8.15879
21034.2 8.04627
21042.1 7.97926
21058.0 7.89071
21073.8 7.82535
21105.6 7.71961
21137.3 7.62855
21264.2 7.32319
21517.9 6.84543
21644.8 6.64582
21708.3 6.55326
21771.7 6.46547
21835.2 6.38390
21866.9 6.34721
21898.6 6.31638
21930.3 6.29961
21946.2 6.30416
21962.0 6.32993
21970.0 6.35881
21977.9 6.40823
21985.8 6.49518
21993.8 6.65844
21997.7 6.79614
22001.7 7.00288
22005.7 7.33271
22009.6 7.89789
22013.6 8.98519
22015.6 9.93985
22017.5 11.4517
22019.5 14.0509
22021.5 18.9454
22022.5 23.1372
22023.5 29.4986
22024.5 39.4721
22025.5 55.2065
22026.7 85.0707
22028.0 104.998
22029.3 85.3169
22030.5 55.8228
22031.4 41.3459
22032.3 31.7813
22033.2 25.3182
22034.1 20.9486
22035.8 15.6058
22037.6 12.6630
22039.4 10.8905
22041.2 9.74646
22044.7 8.41560
22048.2 7.69745
22051.8 7.26807
22055.3 6.98898
22058.8 6.79776
22065.9 6.55710
22073.0 6.41534
22080.0 6.32313
22087.1 6.25849
22101.2 6.17292
22115.4 6.11693
22143.7 6.04176
22171.9 5.98646
22200.2 5.93773
22228.5 5.88527
22242.6 5.84269
22249.7 5.78962
22253.3 5.70899
22255.0 5.59416
22255.9 5.48458
22256.3 5.50589
22256.6 5.78407
22256.8 7.30716
22257.0 11.9972
22257.2 10.5407
22257.4 8.77799
22257.6 7.80768
22257.9 6.97896
22258.5 6.43902
22259.9 6.14753
22262.5 6.00160
22267.8 5.92507
22278.5 5.87727
22299.7 5.83350
22342.2 5.77248
22427.1 5.66560
22597.0 5.45966
22766.8 5.24355
22809.3 5.18299
22851.7 5.11338
22873.0 5.06999
22894.2 5.01018
22904.8 4.96427
22915.4 4.88754
22920.8 4.81947
22926.1 4.69573
22928.7 4.58228
22931.4 4.37985
22932.7 4.20354
22934.0 3.92216
22934.7 3.71475
22935.4 3.48466
22935.7 3.42516
22936.0 3.59934
22936.3 4.78606
22936.5 6.77701
22936.7 11.2386
22936.8 20.5131
22937.0 30.6614
22937.2 30.7776
22937.3 24.3321
22937.5 18.1500
22937.7 14.3363
22938.1 10.6487
22938.5 8.94833
22938.9 8.00705
22939.7 7.01190
22940.5 6.51308
22942.0 6.01108
22943.6 5.76317
22946.7 5.51520
22949.9 5.39067
22956.1 5.26308
22962.4 5.19575
22974.9 5.12030
22987.4 5.07423
23012.5 5.01077
23037.5 4.96097
23087.6 4.87026
23112.7 4.81738
23125.2 4.77333
23131.5 4.72261
23134.6 4.66355
23136.2 4.63788
23137.0 4.78591
23137.3 5.30388
23137.5 6.19739
23137.7 8.59416
23138.0 15.2969
23138.1 14.5080
23138.3 11.5669
23138.5 8.03361
23138.8 6.70074
23139.3 5.74717
23140.4 5.23591
23142.4 4.99722
23146.6 4.88496
23154.9 4.82345
23171.6 4.77439
23205.0 4.71060
23271.6 4.59701
23405.0 4.36140
23471.7 4.23462
23538.4 4.10389
23571.7 4.03997
23605.1 3.98103
23638.4 3.92919
23655.1 3.88824
23663.4 3.81510
23667.6 3.67889
23669.7 3.47038
23670.7 3.26256
23671.2 3.29779
23671.5 3.83665
23671.6 4.73772
23671.8 6.98604
23671.9 11.4652
23672.0 16.3332
23672.1 16.4357
23672.2 13.3095
23672.5 9.24570
23672.7 7.39357
23673.1 5.87963
23674.0 4.94941
23675.8 4.47547
23679.3 4.25169
23682.9 4.18880
23686.4 4.16715
23700.6 4.20808
23714.8 4.36639
23729.0 4.68179
23743.2 5.30141
23757.4 6.60827
23764.5 7.81492
23771.6 9.75812
23778.7 13.0374
23785.8 18.7633
23802.0 43.6157
23806.1 45.5664
23810.1 42.4813
23818.2 30.1201
23824.1 22.6022
23830.0 17.4663
23835.9 14.0394
23841.9 11.7087
23853.7 8.88844
23865.5 7.32579
23877.3 6.36713
23889.1 5.73245
23912.8 4.95646
23936.4 4.50668
23960.1 4.22000
24007.4 3.92294
24054.6 3.95257
24101.9 4.59372
24125.6 5.43798
24149.2 7.04272
24172.9 10.1355
24196.5 16.1505
24250.0 43.1794
24276.8 42.7134
24303.5 32.5033
24328.8 24.3771
24354.0 19.0144
24379.3 15.5200
24404.5 13.1551
24455.0 10.2423
24505.5 8.53962
24556.0 7.41173
24606.5 6.58867
24707.5 5.39594
24808.5 4.48816
24859.0 4.10626
24909.5 3.80657
24960.0 3.70316
25010.5 4.14341
25035.8 4.85265
25061.0 6.24734
25086.3 8.88915
25111.5 13.7371
25148.3 26.8514
25185.0 41.4616
25221.8 41.4777
25258.5 32.7914
25272.2 29.5180
25285.8 26.3152
25292.7 24.5807
25299.5 22.4385
25302.9 20.9402
25304.6 19.9505
25306.3 18.6789
25308.0 16.9019
25308.9 15.6980
25309.8 14.1934
25310.6 12.2260
25311.5 9.72099
25312.3 6.87771
25312.7 5.88006
25313.2 6.24011
25313.4 7.57687
25313.6 10.1371
25313.9 14.1237
25314.1 19.3866
25314.5 30.9079
25315.0 38.5666
25315.9 40.8858
25316.4 39.5815
25316.8 38.0521
25317.8 35.1360
25318.8 32.9559
25319.8 31.3248
25320.7 30.0716
25322.7 28.2700
25324.6 27.0192
25326.6 26.0802
25328.5 25.3338
25332.4 24.1855
25340.1 22.5812
25347.9 21.4112
25363.4 19.6492
25379.0 18.2982
25410.0 16.2641
25441.1 14.7748
25503.2 12.7172
25565.3 11.3520
25627.4 10.3630
25689.5 9.58407
25751.6 8.89347
25767.1 8.71473
25782.7 8.51896
25790.4 8.40604
25798.2 8.26759
25802.1 8.17543
25806.0 8.04238
25807.9 7.93941
25809.8 7.77533
25811.8 7.45182
25812.8 7.21567
25813.2 7.45185
25813.5 8.39734
25813.7 12.3162
25813.9 18.1276
25814.0 24.9225
25814.1 24.9352
25814.3 20.7848
25814.5 16.2365
25814.7 13.6472
25815.1 11.3464
25815.8 9.80780
25816.6 9.24336
25817.4 8.95891
25819.0 8.66393
25820.5 8.50795
25823.7 8.32977
25826.8 8.21709
25833.1 8.05229
25839.3 7.91134
25851.9 7.62507
25864.4 7.27924
25876.9 6.80114
25883.2 6.47238
25889.4 6.04235
25895.7 5.45434
25898.8 5.07826
25902.0 4.63921
25905.1 4.16385
25908.2 3.82670
25909.8 3.92237
25911.3 4.55680
25912.9 6.51586
25913.7 8.47948
25914.5 11.5427
25915.4 16.8683
25916.2 24.1712
25917.1 32.2687
25918.0 38.3914
25919.8 39.0165
25921.5 32.4548
25922.6 28.6734
25923.7 25.6003
25925.8 21.2657
25928.0 18.4867
25930.2 16.6271
25932.3 15.3043
25934.5 14.3307
25938.8 12.9926
25943.1 12.1227
25947.4 11.5126
25956.0 10.7111
25964.6 10.2040
25973.3 9.85006
25990.5 9.37891
26007.7 9.06956
26025.0 8.84332
26059.4 8.51980
26093.9 8.28634
26128.4 8.10145
26197.3 7.81258
26335.2 7.39805
26473.1 7.09295
26749.0 6.64313
26886.9 6.46199
26955.8 6.37231
26990.3 6.31555
27007.5 6.26148
27016.1 6.18630
27020.5 6.06662
27022.6 5.89261
27023.7 5.71905
27024.2 5.74869
27024.5 6.22080
27024.8 8.94264
27024.9 12.7114
27025.0 16.8684
27025.1 16.9172
27025.2 14.2447
27025.5 10.9324
27025.7 9.35963
27026.1 8.00133
27026.9 7.16781
27028.5 6.72994
27031.7 6.51243
27038.2 6.40127
27051.2 6.33643
27077.2 6.28396
27129.1 6.21818
27232.9 6.10988
27440.5 5.91484
27648.1 5.72581
27752.0 5.62439
27803.9 5.56531
27829.8 5.52458
27842.8 5.48499
27849.3 5.43104
27852.5 5.34895
27854.2 5.23991
27855.0 5.16102
27855.4 5.25915
27855.6 5.62652
27855.8 7.20682
27856.0 12.0783
27856.2 10.3933
27856.5 8.10361
27856.7 7.14365
27857.1 6.38774
27858.0 5.94917
27859.8 5.72669
27863.4 5.61585
27870.6 5.55572
27885.0 5.51315
27913.8 5.46401
27971.4 5.37084
28000.2 5.31280
28029.0 5.23301
28043.4 5.17340
28057.8 5.07770
28065.0 4.99600
28072.1 4.85238
28075.7 4.72420
28079.3 4.50020
28081.1 4.31115
28082.9 4.01947
28083.8 3.82288
28084.7 3.64329
28085.6 4.01610
28086.1 5.67703
28086.3 8.00695
28086.5 13.2348
28086.8 23.8731
28087.0 35.9811
28087.2 35.9875
28087.5 28.1560
28087.7 22.1210
28087.9 18.1393
28088.3 13.5533
28088.7 11.1851
28089.1 9.80061
28089.9 8.28517
28090.7 7.50941
28092.3 6.72319
28093.9 6.33296
28097.1 5.94603
28100.3 5.75253
28106.8 5.55443
28113.2 5.44868
28126.1 5.32577
28139.0 5.24403
28164.7 5.10908
28190.4 4.96256
28203.3 4.87208
28216.2 4.76102
28229.1 4.61746
28241.9 4.42029
28248.4 4.28980
28254.8 4.12759
28261.2 3.91976
28267.7 3.64653
28274.1 3.27853
28280.5 2.80996
28283.8 2.60794
28285.4 2.58480
28287.0 2.71104
28288.6 3.18335
28290.2 4.49660
28291.0 5.83717
28291.8 8.01084
28292.6 11.5946
28293.4 17.4780
28294.1 24.7076
28294.7 34.3946
28296.0 54.1648
28296.7 57.3267
28297.3 54.6386
28298.6 42.4188
28299.6 34.1614
28300.6 28.1434
28301.5 23.8262
28302.5 20.6908
28304.4 16.5822
28306.4 14.0894
28308.3 12.4439
28310.3 11.3003
28314.1 9.82316
28318.0 8.91797
28321.9 8.31312
28325.8 7.87989
28329.7 7.55628
28337.5 7.10367
28345.2 6.80251
28353.0 6.58727
28360.8 6.42551
28376.3 6.19671
28391.8 6.04127
28407.4 5.92734
28422.9 5.83919
28454.0 5.70867
28485.1 5.61349
28547.2 5.47481
28609.3 5.36883
28671.5 5.27757
28702.6 5.23570
28733.6 5.19953
28749.2 5.18914
28764.7 5.20151
28772.5 5.23897
28780.2 5.36279
28784.1 5.53603
28786.1 5.70230
28788.0 5.98901
28790.0 6.54113
28790.9 7.02832
28791.9 7.80189
28792.9 9.12721
28793.8 11.6410
28794.3 13.8279
28794.8 17.0876
28795.3 22.3256
28795.8 30.4491
28796.4 45.9796
28797.0 56.2720
28797.6 46.0964
28798.2 30.9210
28798.7 23.0411
28799.2 17.9166
28799.6 14.5752
28800.1 12.3337
28801.0 9.66498
28801.9 8.23460
28802.8 7.37189
28803.7 6.82476
28805.6 6.18628
28807.4 5.84434
28809.2 5.63959
28812.9 5.41541
28816.6 5.29974
28820.2 5.23111
28827.5 5.15355
28842.2 5.07944
28856.8 5.03640
28915.4 4.91193
28974.0 4.78190
29032.6 4.61619
29061.9 4.50959
29091.2 4.37758
29120.5 4.20697
29149.8 3.97461
29164.4 3.82262
29179.1 3.63557
29193.7 3.40029
29208.4 3.09875
29223.0 2.71206
29237.6 2.27778
29245.0 2.16407
29248.6 2.22814
29252.3 2.49005
29256.0 3.16480
29259.6 4.74036
29261.4 6.18442
29263.3 8.38949
29265.1 11.7663
29266.9 16.9026
29268.7 24.1780
29270.5 33.9615
29274.0 53.9892
29275.8 57.2956
29277.5 54.6914
29281.1 42.5421
29283.9 33.7472
29286.8 27.4264
29289.7 23.0025
29292.5 19.8605
29298.2 15.8056
29303.9 13.3907
29309.7 11.8158
29315.4 10.7229
29326.8 9.31707
29338.2 8.45856
29349.6 7.88318
29361.1 7.47146
29372.5 7.16259
29395.4 6.72875
29418.2 6.43785
29441.1 6.22779
29463.9 6.06796
29509.6 5.83732
29555.3 5.67365
29601.0 5.53991
29623.9 5.46230
29635.3 5.38656
29641.0 5.27979
29643.9 5.11679
29645.3 4.90906
29646.0 4.78204
29646.4 4.98400
29646.6 5.60523
29646.8 7.62820
29646.9 11.1790
29647.0 15.1569
29647.1 15.3992
29647.2 12.9808
29647.5 9.22574
29647.8 7.74021
29648.4 6.67073
29649.6 6.06803
29651.9 5.75886
29656.5 5.60072
29665.7 5.51082
29684.1 5.44331
29720.9 5.36831
29794.5 5.26166
29941.7 5.10037
30089.0 4.96750
30236.2 4.84483
30383.4 4.72118
30530.7 4.58366
30604.3 4.50263
30677.9 4.40585
30714.7 4.34875
30751.5 4.28603
30769.9 4.25662
30788.3 4.24427
30797.5 4.26545
30806.7 4.36448
30811.3 4.51258
30813.6 4.65572
30815.9 4.90001
30818.2 5.35833
30819.4 5.75001
30820.5 6.35041
30821.7 7.32745
30822.8 9.04095
30824.0 12.3187
30824.6 15.0941
30825.1 18.9783
30826.1 28.0147
30827.0 34.1323
30827.9 28.2584
30828.9 19.2757
30829.5 15.1486
30830.1 12.2989
30831.3 8.98550
30832.5 7.27648
30833.7 6.30619
30834.9 5.70868
30836.2 5.31612
30838.6 4.84858
30841.0 4.58966
30843.4 4.42937
30848.3 4.24395
30857.9 4.06668
30867.6 3.96478
30887.0 3.80288
30906.3 3.62726
30925.7 3.40174
30935.4 3.26217
30945.1 3.10594
30954.8 2.95677
30959.6 2.91367
30964.4 2.93974
30969.3 3.13731
30974.1 3.77723
30976.5 4.46889
30979.0 5.65359
30981.4 7.69924
30983.8 11.2226
30987.4 20.7779
30991.0 32.1541
30994.6 32.7129
30998.2 25.8058
31000.7 21.3686
31003.3 18.0117
31005.8 15.5504
31008.3 13.7327
31013.3 11.3104
31018.4 9.81773
31023.4 8.82706
31028.5 8.12985
31038.5 7.22430
31048.6 6.66627
31058.7 6.29026
31078.8 5.81692
31099.0 5.53018
31119.1 5.33673
31139.3 5.19614
31159.4 5.08834
31199.8 4.93124
31240.1 4.81917
31320.7 4.66147
31401.3 4.54700
31481.9 4.45327
31643.1 4.29401
31965.6 4.00432
32126.8 3.85157
32207.4 3.76922
32247.8 3.72762
32267.9 3.71524
32278.0 3.74424
32283.0 3.87472
32285.5 4.23925
32286.8 4.94966
32287.4 5.86264
32288.1 7.81329
32288.5 10.3450
32289.0 12.0406
32289.5 10.4181
32289.9 7.90312
32290.4 6.28441
32290.9 5.36983
32291.9 4.52971
32293.8 4.00660
32297.6 3.77806
32305.2 3.69222
32320.4 3.64998
32350.9 3.60333
32411.9 3.50846
32442.4 3.44793
32472.9 3.36236
32488.2 3.29618
32503.4 3.18732
32511.1 3.09464
32518.7 2.93870
32522.5 2.81138
32526.3 2.62494
32530.1 2.43486
32532.0 2.81843
32533.0 4.04728
32533.5 5.68569
32533.9 8.92202
32534.2 12.0028
32534.5 15.9728
32535.0 24.3602
32535.5 24.6335
32536.1 19.2568
32536.5 15.4638
32536.9 12.7476
32537.3 10.8548
32537.7 9.53991
32538.6 7.81446
32539.4 6.80484
32541.1 5.69237
32542.7 5.11452
32544.4 4.76236
32546.1 4.52798
32549.4 4.23730
32552.7 4.06327
32556.1 3.94767
32562.7 3.80172
32569.4 3.71194
32576.1 3.64974
32589.4 3.56601
32602.8 3.50891
32616.1 3.46483
32642.8 3.39554
32696.1 3.28580
32749.5 3.18648
32856.2 2.98197
32962.9 2.74424
33069.7 2.44309
33123.0 2.25379
33176.4 2.02569
33229.7 1.74693
33283.1 1.42975
33309.8 1.31295
33323.1 1.31126
33336.5 1.40637
33349.8 1.70932
33363.1 2.47979
33369.8 3.21527
33376.5 4.36830
33383.1 6.18180
33389.8 9.01300
33395.9 12.8352
33401.9 18.0157
33414.0 29.0081
33420.1 31.0309
33426.1 29.7692
33438.2 23.1244
33447.7 18.3580
33457.2 14.8960
33466.7 12.4612
33476.2 10.7350
33485.8 9.51131
33490.5 9.06060
33495.3 8.73479
33500.0 8.60381
33502.4 8.67794
33504.8 8.94273
33507.2 9.61039
33508.3 10.2534
33509.5 11.3027
33510.7 13.1091
33511.9 16.4684
33512.5 19.2940
33513.1 23.3774
33513.7 29.4876
33514.3 38.6126
33515.1 57.8308
33516.0 70.8700
33516.9 58.3465
33517.7 39.1898
33518.6 26.8047
33519.4 19.8148
33520.3 15.7512
33521.2 13.2421
33522.0 11.5993
33522.9 10.4675
33524.6 9.04620
33526.3 8.20969
33528.0 7.66440
33531.5 6.99245
33534.9 6.58156
33538.4 6.29120
33545.2 5.88028
33552.1 5.57842
33559.0 5.33324
33572.7 4.93863
33600.3 4.35038
33627.8 3.89831
33655.3 3.50850
33682.8 3.13532
33696.5 2.95170
33710.3 2.81956
33717.2 2.85882
33720.6 2.96671
33724.1 3.21202
33727.5 3.75056
33730.9 4.98620
33732.7 6.17704
33734.4 8.13843
33736.1 11.4990
33737.8 17.3817
33739.9 30.4239
33742.0 46.6753
33743.1 49.7393
33744.1 47.1405
33746.2 34.4445
33748.0 25.1619
33749.8 19.0805
33751.6 15.1576
33753.4 12.5484
33757.0 9.43950
33760.5 7.72604
33764.1 6.67058
33767.7 5.96502
33774.9 5.08936
33782.0 4.56765
33789.2 4.21943
33803.5 3.77257
33817.8 3.48534
33832.2 3.27509
33860.8 2.96646
33918.1 2.53648
33975.4 2.22080
34032.7 2.02732
34061.4 2.02772
34090.0 2.17584
34118.7 2.63916
34147.3 3.85036
34161.6 5.06729
34176.0 7.09593
34190.3 10.5831
34204.6 16.6931
34222.3 30.2342
34240.0 47.1739
34248.9 50.5467
34257.7 47.9386
34275.4 33.9968
34288.2 24.4912
34301.1 16.9461
34307.5 13.4942
34310.7 11.7015
34313.9 9.76593
34317.1 7.58145
34320.3 5.07116
34322.0 3.78026
34323.6 2.81523
34324.4 2.72273
34325.2 3.22664
34326.0 4.82342
34326.4 6.26739
34326.8 8.30477
34327.6 14.8533
34328.4 24.6696
34329.2 35.9203
34330.0 44.5348
34331.6 47.1940
34333.3 40.9489
34334.3 36.8302
34335.3 33.3404
34337.4 28.1374
34339.5 24.5921
34341.6 22.0555
34345.7 18.6564
34349.9 16.4458
34354.0 14.8484
34358.2 13.6201
34366.5 11.7984
34374.8 10.4677
34383.1 9.41862
34391.4 8.50811
34395.6 7.99444
34397.7 7.57195
34398.7 7.15348
34399.2 6.84957
34399.5 6.88774
34399.8 8.41302
34399.9 11.3195
34400.0 15.1411
34400.1 16.1215
34400.2 14.5633
34400.5 11.9215
34400.7 10.6043
34401.2 9.44624
34402.1 8.64036
34404.0 8.10260
34407.7 7.64252
34415.1 7.07811
34429.9 6.25005
34459.6 5.05753
34519.0 3.52183
34578.4 2.51708
34608.1 2.13574
34622.9 1.96864
34630.3 1.88424
34634.0 1.83900
34635.9 1.84626
34636.8 2.00279
34637.3 2.47363
34637.5 3.29083
34637.8 5.79335
34638.0 11.4622
34638.3 7.49937
34638.5 4.65128
34638.7 3.50793
34639.1 2.63234
34639.9 2.16884
34641.5 1.96016
34644.8 1.85595
34651.4 1.77634
34664.5 1.68637
34690.6 1.61760
34716.8 1.72190
34743.0 2.09370
34769.2 2.90147
34795.4 4.43432
34821.6 7.18008
34847.8 11.8977
34870.9 18.4140
34893.9 27.4133
34940.0 46.0212
34963.1 49.3770
34986.1 47.7933
35032.2 38.6209
35087.3 28.8466
35142.4 22.5800
35197.6 18.5661
35252.7 15.8342
35307.8 13.8249
35362.9 12.1661
35390.5 11.3303
35404.2 10.8601
35418.0 10.3057
35431.8 9.57767
35438.7 9.08757
35445.6 8.44131
35452.5 7.51739
35455.9 6.87604
35459.4 6.04396
35462.8 4.92369
35464.5 4.22408
35466.2 3.42611
35468.0 2.58414
35469.7 1.95804
35470.5 1.98432
35471.4 2.59890
35472.3 4.40619
35472.7 6.07414
35473.1 8.48990
35473.8 14.7340
35474.6 23.9843
35475.3 34.6485
35476.0 42.9870
35477.4 45.5613
35478.9 39.2209
35480.3 33.1573
35481.7 28.7578
35483.2 25.6048
35484.6 23.3269
35487.4 20.2854
35490.3 18.3880
35493.1 17.0917
35496.0 16.1535
35501.7 14.8841
35507.4 14.0548
35513.1 13.4652
35524.4 12.6637
35535.8 12.1260
35547.2 11.7269
35570.0 11.1474
35615.5 10.3829
35661.1 9.84721
35752.2 9.07359
35843.3 8.50663
36025.5 7.68652
36116.6 7.36276
36162.1 7.20140
36184.9 7.09700
36196.3 6.99792
36202.0 6.87193
36204.8 6.71461
36206.2 6.60849
36206.9 6.77516
36207.3 7.40948
36207.6 10.1699
36207.8 13.9233
36208.0 18.3393
36208.2 18.3138
36208.4 15.4079
36208.6 12.4185
36208.8 10.7023
36209.3 9.15973
36210.3 8.13170
36212.2 7.58757
36215.9 7.31722
36223.5 7.17066
36238.7 7.06439
36269.0 6.93499
36284.2 6.86931
36299.3 6.78481
36306.9 6.72218
36314.5 6.61908
36318.3 6.52844
36322.1 6.36443
36324.0 6.21442
36325.9 5.94795
36326.8 5.71585
36327.8 5.33995
36328.7 4.71258
36329.2 4.53154
36329.4 5.08844
36329.7 7.91566
36329.8 13.5127
36330.0 21.3393
36330.2 22.9047
36330.3 19.8045
36330.6 15.9283
36330.8 13.4603
36331.2 10.9851
36332.1 9.12645
36332.9 8.39241
36333.8 8.01223
36335.5 7.61853
36337.2 7.41811
36340.7 7.21115
36344.2 7.10363
36351.1 6.98768
36358.0 6.92174
36371.8 6.83992
36385.6 6.78365
36413.2 6.69758
36440.9 6.62590
36551.4 6.38576
36772.4 5.97863
36882.9 5.78120
36993.4 5.56035
37048.7 5.42205
37076.3 5.33706
37104.0 5.23337
37131.6 5.09901
37145.4 5.01451
37159.2 4.91553
37173.0 4.80623
37186.9 4.73384
37193.8 4.78849
37197.2 4.88886
37200.7 5.09507
37204.1 5.50822
37207.6 6.34400
37211.0 8.11073
37214.5 12.0028
37217.7 19.5104
37221.0 28.9711
37222.6 30.9071
37224.3 29.8021
37227.5 23.5142
37230.0 19.0966
37232.5 15.9405
37235.0 13.7480
37237.5 12.2016
37242.5 10.2433
37247.5 9.09739
37252.5 8.36326
37257.5 7.85938
37267.5 7.21988
37277.6 6.83380
37287.6 6.57638
37307.6 6.25255
37327.6 6.05390
37347.6 5.91657
37387.6 5.73160
37427.6 5.60503
37467.6 5.50706
37547.6 5.35292
37707.6 5.10652
37787.6 4.97698
37807.6 4.93378
37827.6 4.87256
37837.6 4.82409
37847.6 4.74087
37852.6 4.66579
37857.6 4.52776
37860.1 4.40062
37862.6 4.17159
37863.9 3.97143
37865.1 3.64453
37866.4 3.09176
37867.0 2.96133
37867.3 3.61766
37867.6 7.31338
37867.8 13.5947
37868.0 21.9674
37868.2 23.2109
37868.4 19.3711
37868.6 14.4941
37868.9 11.7236
37869.4 9.00404
37870.0 7.78061
37870.5 7.10630
37871.6 6.39660
37872.6 6.03415
37874.7 5.66285
37876.8 5.47638
37881.1 5.28707
37885.3 5.19018
37893.8 5.08856
37902.2 5.03289
37919.1 4.96743
37936.0 4.92491
37969.9 4.86280
38003.7 4.81225
38139.0 4.63839
38274.3 4.46801
38342.0 4.36434
38358.9 4.32764
38375.8 4.27393
38384.3 4.23034
38392.7 4.15450
38397.0 4.08553
38401.2 3.95861
38403.3 3.84173
38405.4 3.63382
38407.5 3.16892
38408.6 2.72001
38409.1 2.70836
38409.4 3.37784
38409.7 6.55859
38409.8 12.2475
38410.0 19.4453
38410.2 20.5713
38410.3 17.0904
38410.6 12.5569
38410.9 10.0955
38411.4 7.77268
38412.4 6.15818
38413.4 5.56062
38414.4 5.25669
38416.4 4.94686
38418.4 4.79050
38422.4 4.63212
38426.4 4.55090
38434.5 4.46530
38442.5 4.41816
38458.6 4.36210
38474.7 4.32517
38539.1 4.22586
38667.8 4.07746
38796.5 3.96219
38925.2 3.91014
39053.9 4.01548
39182.6 4.54489
39247.0 5.18144
39311.3 6.32959
39375.7 8.39396
39440.0 12.0321
39576.4 25.7372
39590.0 26.9924
39600.0 27.9401
39602.5 28.2357
39603.8 28.3439
39604.4 28.2819
39605.0 27.8418
39605.3 27.1395
39605.6 25.6007
39605.9 22.2563
39606.3 16.9705
39606.4 15.0689
39606.6 14.9069
39606.9 17.8090
39607.2 20.8628
39607.5 22.8757
39607.8 24.1791
39608.1 25.0033
39608.8 25.9874
39610.0 26.9029
39612.1 27.5304
39614.2 27.8478
39618.4 28.2209
39626.8 28.6443
39643.6 28.9945
39691.8 27.8510
39740.0 24.9991
39857.4 17.9892
39916.1 15.5090
39974.8 13.6232
40092.2 11.0286
40150.9 10.0831
40180.3 9.61832
40187.6 9.47797
40194.9 9.29469
40198.6 9.16143
40202.3 8.95191
40204.1 8.77929
40205.9 8.49960
40207.8 7.97376
40208.7 7.68397
40209.2 8.12051
40209.4 9.26143
40209.6 12.3798
40209.8 18.7545
40210.0 26.9345
40210.2 28.0305
40210.4 23.9366
40210.7 19.1789
40210.9 16.3686
40211.4 13.6022
40212.0 12.3163
40212.5 11.6180
40213.5 10.8702
40214.6 10.4817
40216.7 10.0792
40218.8 9.86643
40223.0 9.63119
40227.2 9.49130
40235.6 9.30654
40244.0 9.17047
40277.5 8.76049
40344.7 8.11588
40479.0 7.04101
40546.1 6.52034
40613.2 5.93496
40646.8 5.57339
40663.6 5.35502
40680.4 5.09159
40697.2 4.74700
40705.6 4.52064
40713.9 4.23091
40722.3 3.83390
40726.5 3.56973
40730.7 3.24067
40734.9 2.82616
40739.1 2.35286
40741.2 2.18567
40743.3 2.33373
40744.4 2.75852
40745.4 3.75704
40746.5 5.95715
40747.0 7.85480
40747.5 10.5911
40748.1 15.4174
40748.8 22.0041
40750.0 36.4697
40750.6 39.4975
40751.3 38.4420
40752.5 31.0824
40754.0 23.2894
40755.4 18.3943
40756.9 15.3061
40758.4 13.2829
40759.8 11.8643
40761.3 10.8367
40764.2 9.44744
40767.2 8.55323
40770.1 7.93072
40775.9 7.11472
40781.8 6.59071
40787.6 6.21584
40799.3 5.68680
40811.1 5.30022
40822.8 4.98042
40846.2 4.42836
40869.6 3.94411
40893.0 3.62405
40904.7 3.66274
40916.4 4.05151
40928.1 5.20377
40939.8 7.96494
40947.4 11.2072
40954.9 15.8415
40962.5 21.2494
40970.0 25.7169
40985.1 27.1140
41000.2 22.9299
41012.0 19.6702
41023.8 17.1038
41035.6 15.1283
41047.4 13.5576
41059.2 12.2130
41071.0 10.8998
41076.9 10.1578
41082.8 9.27092
41088.7 8.34600
41090.2 8.33113
41091.6 8.78589
41093.1 10.5847
41093.9 12.6972
41094.6 16.3359
41095.8 27.7634
41097.0 42.2892
41098.2 44.3526
41099.4 37.1316
41100.6 30.6357
41101.7 26.0741
41102.9 22.9615
41104.0 20.7953
41106.3 18.0134
41108.6 16.3403
41110.9 15.2243
41113.2 14.4305
41117.8 13.3592
41122.4 12.6531
41126.9 12.1419
41136.1 11.4231
41145.3 10.9198
41154.4 10.5330
41172.8 9.95410
41191.1 9.52375
41209.4 9.18200
41246.1 8.65847
41319.5 7.95032
41392.8 7.45912
41466.2 7.06186
41539.5 6.67566
41576.2 6.44382
41594.5 6.29907
41612.8 6.11571
41631.2 5.85857
41640.4 5.67912
41649.5 5.43968
41658.7 5.09833
41663.3 4.86628
41667.9 4.57498
41672.4 4.20884
41677.0 3.79646
41679.3 3.64807
41681.6 3.72418
41683.9 4.56138
41685.0 5.72189
41686.2 7.87861
41687.1 10.8898
41688.1 15.1396
41689.1 20.1786
41690.0 24.3625
41691.9 25.8406
41693.8 22.0416
41695.9 18.1181
41698.0 15.4310
41700.0 13.6346
41702.1 12.3968
41704.2 11.4992
41706.2 10.8304
41710.4 9.90091
41714.5 9.29025
41718.6 8.86159
41726.9 8.29812
41735.2 7.94240
41743.4 7.69601
41759.9 7.37155
41776.5 7.16183
41793.0 7.01084
41826.0 6.79844
41859.1 6.64731
41892.1 6.52792
41958.2 6.33917
42090.5 6.05226
42222.7 5.81440
42354.9 5.59093
42487.1 5.35473
42553.2 5.21601
42619.3 5.03713
42652.3 4.91059
42668.9 4.82662
42685.4 4.71689
42701.9 4.55933
42710.2 4.44793
42718.4 4.29767
42726.7 4.08066
42735.0 3.74101
42739.1 3.49675
42743.2 3.21141
42745.3 3.10724
42747.3 3.18682
42748.4 3.43374
42749.4 4.01197
42750.4 5.27975
42751.5 7.96292
42752.1 10.8404
42752.7 14.8008
42754.0 23.5153
42755.3 24.8511
42756.5 20.5683
42757.9 16.1955
42759.3 13.3277
42760.7 11.4831
42762.1 10.2530
42763.5 9.38028
42764.9 8.74407
42767.6 7.87798
42770.4 7.32179
42773.2 6.93885
42778.7 6.44510
42784.3 6.13952
42789.8 5.93114
42800.9 5.66059
42812.0 5.48794
42823.1 5.36384
42845.2 5.18677
42867.4 5.05413
42889.6 4.94015
42933.9 4.72355
42978.3 4.47473
43000.5 4.31728
43022.7 4.11776
43044.8 3.84564
43055.9 3.66583
43067.0 3.44361
43078.1 3.16981
43089.2 2.87359
43094.7 2.78772
43100.3 2.92331
43103.0 3.21545
43105.8 3.84593
43108.6 5.13012
43111.4 7.65492
43113.3 10.5814
43115.2 14.6593
43119.0 23.6309
43122.8 25.0482
43126.7 20.7384
43129.0 18.0856
43131.3 15.9239
43136.0 12.9118
43140.7 11.0349
43145.4 9.80454
43150.0 8.94772
43154.7 8.32465
43164.1 7.48310
43173.4 6.94258
43182.8 6.56591
43201.4 6.07113
43220.1 5.75350
43238.8 5.52587
43276.2 5.20390
43313.6 4.96649
43351.0 4.76472
43388.4 4.57334
43407.1 4.47087
43416.4 4.40508
43421.1 4.34725
43423.5 4.28055
43424.6 4.20902
43425.2 4.18317
43425.5 4.28642
43425.8 5.22253
43426.0 7.86582
43426.2 7.04973
43426.6 5.43306
43426.9 4.98190
43427.6 4.69026
43429.0 4.52995
43431.8 4.43970
43437.5 4.37390
43448.7 4.29703
43471.1 4.16561
43516.0 3.88754
43560.9 3.55153
43583.4 3.34876
43594.6 3.23485
43600.2 3.17255
43603.0 3.13730
43604.4 3.11643
43605.8 3.28247
43606.0 3.64561
43606.2 3.47682
43607.3 3.14205
43608.4 3.10744
43610.6 3.07157
43615.0 3.01464
43623.8 2.90330
43641.4 2.66196
43659.0 2.39078
43676.6 2.09774
43694.1 1.82930
43711.7 1.78655
43720.5 2.06487
43729.3 2.89293
43733.7 3.71284
43738.1 5.00013
43742.5 7.01300
43746.9 10.1039
43751.4 14.8871
43756.0 21.5481
43765.0 36.3797
43769.5 39.6420
43774.1 38.7384
43783.1 31.2664
43792.1 24.2283
43801.1 19.4179
43810.1 16.2129
43819.2 14.0056
43828.2 12.4180
43837.2 11.2316
43855.2 9.57394
43873.2 8.44288
43891.3 7.54918
43900.3 7.10866
43909.3 6.57576
43913.8 6.20002
43918.3 5.61653
43920.5 5.13793
43922.8 4.36793
43923.9 3.76795
43925.0 2.94421
43926.2 2.07558
43926.7 2.53675
43927.0 3.93118
43927.3 7.51620
43927.5 11.6895
43927.7 17.9141
43928.0 31.2897
43928.4 33.9451
43928.7 28.8649
43929.2 22.6148
43929.6 18.5542
43930.1 15.9908
43930.5 14.3143
43931.4 12.2322
43932.4 11.0227
43934.2 9.68015
43936.0 8.95607
43937.8 8.49346
43939.7 8.17073
43943.3 7.73673
43946.9 7.44667
43950.6 7.23168
43957.9 6.91592
43965.2 6.67990
43972.5 6.48610
43987.0 6.16673
44016.2 5.65329
44045.4 5.20385
44074.5 4.77533
44103.7 4.40361
44118.3 4.32535
44132.8 4.51387
44147.4 5.51571
44154.7 6.78353
44162.0 9.11385
44173.0 15.9425
44184.0 24.7825
44195.0 26.2098
44206.0 21.7828
44214.0 18.5763
44222.0 16.0862
44230.0 14.2205
44237.9 12.8162
44253.9 10.8759
44269.9 9.59113
44285.8 8.61816
44301.8 7.71959
44309.8 7.19301
44313.8 6.87065
44317.8 6.47351
44321.8 5.94941
44325.8 5.20632
44329.8 4.20546
44331.8 4.08609
44332.8 4.81180
44333.3 5.71908
44333.7 7.22991
44334.3 10.0986
44334.9 14.2591
44335.4 19.2630
44336.0 23.3446
44337.1 25.0407
44338.3 21.9689
44339.2 19.3516
44340.1 17.3213
44341.0 15.7761
44342.0 14.6180
44343.8 13.0071
44345.7 11.9687
44347.5 11.2422
44349.4 10.7085
44353.0 9.97567
44356.7 9.48863
44360.4 9.13826
44367.8 8.65520
44375.2 8.32654
44382.6 8.08081
44397.4 7.72349
44412.1 7.46382
44426.9 7.25939
44456.5 6.94550
44515.6 6.51101
44574.7 6.19736
44692.8 5.67530
44722.4 5.52115
44737.2 5.42653
44751.9 5.30852
44766.7 5.14538
44774.1 5.03207
44781.5 4.88018
44788.9 4.65920
44796.3 4.30139
44800.0 4.02508
44803.7 3.65306
44807.3 3.34508
44808.3 3.44578
44809.2 3.84067
44810.1 4.93385
44810.6 6.00510
44811.0 7.66931
44811.5 10.4237
44812.0 14.2331
44813.0 22.6380
44814.0 24.0946
44815.0 20.2801
44815.9 16.8530
44816.8 14.3994
44817.7 12.6826
44818.5 11.4584
44820.3 9.87634
44822.1 8.92193
44823.9 8.29245
44825.7 7.84890
44829.2 7.26741
44832.8 6.90226
44836.4 6.65166
44843.5 6.32452
44850.6 6.11401
44857.7 5.96125
44872.0 5.73440
44886.2 5.53921
44900.5 5.30565
44907.6 5.13144
44914.7 4.84683
44918.3 4.60824
44921.8 4.22174
44925.4 3.53994
44927.2 3.25780
44928.1 3.80082
44928.5 4.89824
44928.9 7.39899
44929.2 10.1643
44929.5 13.9400
44930.0 22.4328
44930.5 23.9310
44931.1 20.2247
44931.6 16.3428
44932.2 13.7281
44932.8 12.0102
44933.4 10.8385
44934.5 9.38467
44935.7 8.53693
44938.0 7.60635
44940.3 7.11082
44945.0 6.59378
44949.6 6.32394
44954.3 6.15542
44958.9 6.03818
44968.2 5.88143
44977.5 5.77714
44986.7 5.69955
45005.3 5.58541
45042.4 5.42821
45079.5 5.30869
45228.0 4.91828
45302.2 4.71793
45376.4 4.48335
45413.6 4.33948
45450.7 4.15699
45469.2 4.03469
45487.8 3.86022
45497.1 3.72657
45506.3 3.51194
45511.0 3.33511
45515.6 3.04987
45520.3 2.53366
45522.6 2.29643
45523.7 2.76281
45524.3 3.81116
45524.9 6.55243
45525.2 8.98259
45525.4 12.4756
45526.0 20.3239
45526.6 21.6455
45527.1 17.8754
45527.7 14.2580
45528.2 11.8024
45528.8 10.1592
45529.3 9.02635
45530.4 7.61034
45531.5 6.78190
45533.7 5.87294
45535.9 5.38978
45540.3 4.88507
45544.7 4.61894
45553.5 4.32760
45562.3 4.15594
45579.9 3.92618
45597.5 3.74550
45632.8 3.40144
45668.0 3.01162
45703.2 2.53113
45720.8 2.25113
45738.4 1.95884
45756.0 1.71272
45773.6 1.73311
45782.4 2.05692
45791.2 2.90469
45795.6 3.68828
45800.0 4.86322
45804.4 6.60609
45808.8 9.15446
45814.1 13.6810
45819.4 20.0595
45830.0 34.3606
45835.3 37.5609
45840.6 36.8071
45851.2 29.8878
45860.8 23.7555
45870.5 19.3271
45880.1 16.2045
45889.7 13.9275
45899.4 12.1705
45904.2 11.4245
45909.0 10.7544
45913.8 10.1791
45918.6 9.81671
45921.1 9.83317
45923.5 10.1594
45925.9 11.1279
45928.3 13.4206
45931.1 19.3715
45934.0 27.2010
45936.9 28.4322
45939.7 24.3887
45942.3 20.8137
45944.9 18.2412
45947.5 16.4349
45950.1 15.1336
45955.4 13.4061
45960.6 12.3144
45965.8 11.5499
45971.0 10.9777
45981.4 10.1562
45991.8 9.57731
46002.2 9.13575
46023.0 8.48805
46043.8 8.02148
46064.6 7.66126
46106.3 7.12390
46147.9 6.71742
46189.5 6.35265
46210.4 6.14883
46220.8 6.02665
46231.2 5.87657
46241.6 5.67314
46252.0 5.35618
46257.2 5.11062
46262.4 4.76232
46267.6 4.37612
46268.9 4.39821
46270.2 4.67751
46271.5 5.68199
46272.1 6.81746
46272.8 8.76991
46273.9 15.1203
46275.0 23.3520
46276.1 24.8256
46277.2 20.9240
46278.4 16.9930
46279.5 14.3555
46280.7 12.6039
46281.8 11.4203
46283.0 10.5708
46284.1 9.94782
46286.5 9.09254
46288.8 8.54071
46291.1 8.15704
46295.7 7.65937
46300.3 7.34967
46304.9 7.13685
46314.2 6.85937
46323.4 6.68142
46332.6 6.55400
46351.1 6.37620
46388.1 6.15299
46425.0 6.00117
46498.9 5.78071
46572.8 5.61166
46646.7 5.46961
46720.6 5.34901
46757.5 5.30336
46776.0 5.29047
46794.5 5.29363
46812.9 5.33615
46822.2 5.39273
46831.4 5.50425
46840.6 5.74197
46845.3 5.96539
46849.9 6.33635
46854.5 7.01014
46856.8 7.56680
46859.1 8.39194
46861.4 9.67442
46863.7 11.7814
46866.0 15.4471
46868.3 21.9680
46870.7 32.3349
46873.0 39.4598
46875.3 32.8541
46877.7 22.6038
46879.1 18.0931
46880.5 14.9073
46883.4 11.0860
46886.2 9.05696
46889.1 7.88927
46891.9 7.15886
46894.8 6.67645
46900.5 6.09570
46906.2 5.77170
46911.9 5.57058
46923.3 5.33899
46934.8 5.20949
46946.2 5.12477
46969.0 5.01304
46991.8 4.93306
47014.7 4.86493
47060.3 4.73646
47106.0 4.59579
47128.9 4.51268
47151.7 4.41350
47174.5 4.28561
47185.9 4.20282
47197.4 4.09852
47208.8 3.95857
47220.2 3.75756
47231.6 3.49708
47234.5 3.48499
47237.3 3.64137
47238.7 3.89813
47240.2 4.44105
47241.6 5.61037
47243.0 8.12345
47244.5 13.5862
47246.0 20.7350
47246.8 22.3923
47247.5 21.8624
47249.0 17.7216
47250.0 15.0291
47251.0 12.9619
47251.9 11.4195
47252.9 10.2670
47254.9 8.70890
47256.9 7.74623
47258.8 7.10081
47260.8 6.64713
47264.7 6.05221
47268.6 5.68227
47272.6 5.42956
47280.4 5.10299
47288.3 4.89468
47296.1 4.74467
47311.8 4.52698
47343.3 4.19548
47359.0 3.99489
47366.8 3.79624
47370.8 3.53185
47372.7 3.17986
47373.7 2.84891
47374.2 2.83353
47374.4 3.33582
47374.7 5.56448
47374.8 9.56550
47375.0 14.8996
47375.2 15.8378
47375.3 13.3529
47375.6 9.70850
47375.9 7.79587
47376.4 6.17899
47377.5 5.12930
47379.7 4.54495
47384.1 4.22307
47393.0 4.00708
47410.6 3.78292
47428.3 3.60025
47445.9 3.43564
47463.6 3.32444
47481.2 3.40613
47490.0 3.64571
47498.9 4.19025
47507.7 5.33648
47516.5 7.65349
47522.4 10.2710
47528.3 13.9548
47540.0 22.2762
47551.8 23.8303
47563.5 19.9057
47572.9 16.7647
47582.3 14.3968
47591.7 12.6799
47601.0 11.4255
47619.8 9.76354
47638.6 8.73810
47657.4 8.05098
47676.1 7.55999
47713.7 6.90124
47751.2 6.46553
47788.7 6.12428
47807.5 5.95431
47826.3 5.74365
47835.7 5.59084
47845.0 5.34642
47849.7 5.14160
47854.4 4.80116
47856.8 4.52712
47859.1 4.12963
47861.5 3.64334
47862.6 3.79550
47863.2 4.54290
47863.8 6.71121
47864.1 8.92018
47864.4 12.1129
47865.0 19.3267
47865.6 20.8425
47866.2 17.9990
47866.8 15.3375
47867.3 13.4038
47868.4 11.0135
47869.5 9.70198
47870.6 8.90016
47872.7 7.98760
47874.9 7.48808
47879.3 6.95759
47883.6 6.67807
47892.3 6.38004
47901.1 6.21645
47909.8 6.10783
47918.5 6.02751
47935.9 5.91057
47953.3 5.82430
47970.8 5.75479
48005.6 5.64398
48075.3 5.48016
48145.0 5.35554
48284.4 5.16344
48423.7 5.00981
48702.5 4.73731
48772.2 4.66184
48807.1 4.61856
48841.9 4.56773
48876.7 4.50190
48894.2 4.45800
48911.6 4.39989
48929.0 4.31450
48946.4 4.16621
48955.1 4.03585
48963.9 3.81251
48968.2 3.62871
48972.6 3.35587
48976.9 3.02071
48979.1 3.21543
48980.2 4.01440
48980.7 4.95651
48981.3 6.63061
48981.7 8.82719
48982.1 11.8543
48983.0 18.6897
48983.9 20.0095
48984.7 16.7940
48985.5 14.0086
48986.2 11.9695
48987.0 10.5356
48987.7 9.52308
48989.2 8.19578
48990.7 7.40288
48993.7 6.51408
48996.7 6.03966
48999.7 5.74559
49002.7 5.54716
49008.6 5.29528
49014.6 5.14189
49020.6 5.03808
49032.5 4.90496
49044.5 4.82140
49056.4 4.76264
49080.3 4.68202
49104.2 4.62581
49128.0 4.58171
49175.8 4.51117
49271.4 4.39720
49366.9 4.29238
49462.4 4.18525
49558.0 4.07001
49653.5 3.94625
49677.4 3.91907
49701.3 3.90797
49713.2 3.92567
49725.2 4.00681
49731.1 4.12569
49737.1 4.42816
49740.1 4.77480
49743.1 5.48868
49744.6 6.16078
49746.1 7.26597
49747.6 9.20506
49749.0 12.7134
49750.5 18.2298
49752.0 22.0408
49753.5 18.5315
49755.0 13.0834
49755.9 10.5758
49756.9 8.84191
49758.8 6.81726
49760.7 5.76725
49762.6 5.17357
49766.5 4.56386
49770.3 4.27417
49777.9 4.01178
49785.6 3.89409
49800.9 3.78021
49816.2 3.71602
49846.9 3.62370
49877.5 3.54132
49938.7 3.36486
50000.0 3.14167
50026.4 3.01530
50052.8 2.84619
50066.0 2.72574
50079.2 2.54423
50085.8 2.40049
50092.4 2.17226
50095.7 1.99484
50099.0 1.74399
50102.3 1.47806
50104.0 1.73965
50104.8 2.55288
50105.6 5.05958
50106.0 7.08125
50106.3 9.98263
50107.0 16.6285
50107.3 18.1958
50107.7 17.8895
50108.4 14.6724
50109.4 10.2730
50110.5 7.88539
50111.5 6.55396
50112.6 5.73780
50114.7 4.81279
50116.7 4.31248
50120.9 3.78244
50125.1 3.50377
50133.5 3.20171
50141.9 3.02736
50158.7 2.80248
50175.5 2.63458
50209.0 2.34066
50242.6 2.05577
50276.1 1.79904
50309.7 1.73193
50326.5 1.94813
50343.3 2.62249
50351.6 3.29588
50360.0 4.35806
50368.4 6.01583
50376.8 8.56326
50385.6 12.5956
50394.4 18.2918
50412.0 31.3899
50420.8 34.5578
50429.6 34.0712
50447.2 27.8238
50458.1 23.7965
50469.0 20.5142
50490.9 15.9462
50501.8 14.3495
50512.7 13.0181
50518.2 12.3940
50523.6 11.7219
50526.4 11.3084
50529.1 10.7306
50530.5 10.2853
50531.8 9.57875
50532.5 9.01313
50533.2 8.15515
50533.9 6.81451
50534.2 6.15811
50534.5 7.32801
50534.8 12.3501
50535.0 21.0372
50535.2 24.2967
50535.5 22.8013
50535.9 19.0141
50536.4 16.7960
50537.3 14.6767
50538.2 13.6810
50539.0 13.1014
50540.8 12.4180
50542.6 12.0102
50546.2 11.4920
50549.8 11.1383
50557.0 10.6180
50564.1 10.2140
50578.5 9.57648
50592.8 9.07433
50621.5 8.31373
50650.2 7.75986
50678.9 7.33929
50693.2 7.16748
50707.6 7.02007
50721.9 6.90400
50736.3 6.85627
50743.4 6.90990
50747.0 6.99179
50750.6 7.15699
50754.2 7.51048
50756.0 7.83870
50757.8 8.37722
50759.6 9.33825
50761.4 11.2276
50762.3 12.9217
50763.1 15.5572
50764.0 19.9313
50764.9 27.1258
50766.0 39.9112
50767.0 48.6263
50768.0 40.4913
50769.1 27.9910
50770.3 18.7607
50771.5 14.0921
50772.8 11.5576
50774.0 10.0885
50775.2 9.15698
50776.4 8.54040
50778.9 7.79252
50781.3 7.36935
50783.8 7.10474
50788.7 6.79753
50793.6 6.62387
50798.4 6.51009
50808.2 6.36155
50827.8 6.17896
50847.4 6.04673
50886.5 5.81728
50906.1 5.66473
50915.9 5.49075
50920.8 5.22881
50923.2 4.83153
50924.4 4.35181
50925.1 4.04686
50925.4 4.22824
50925.7 6.34998
50925.8 10.2378
50926.0 15.8926
50926.2 17.2710
50926.3 15.1299
50926.6 12.1332
50926.8 10.3014
50927.3 8.51231
50928.3 7.23586
50930.2 6.49652
50934.0 6.09859
50941.6 5.87763
50956.9 5.73010
50972.2 5.65037
50987.5 5.58936
51018.1 5.49004
51048.7 5.40624
51171.1 5.14487
51293.5 4.94764
51415.9 4.78566
51660.7 4.51761
51905.5 4.28192
52150.3 4.04780
52395.1 3.78847
52517.5 3.63841
52639.9 3.46575
52701.1 3.36793
52762.3 3.26136
52823.5 3.15736
52838.8 3.14575
52854.1 3.17488
52861.7 3.24459
52869.4 3.45842
52873.2 3.73732
52875.1 3.98945
52877.0 4.39671
52878.9 5.10679
52880.8 6.48067
52881.8 7.68879
52882.8 9.53515
52883.7 12.5241
52884.7 17.3034
52885.8 26.1312
52887.0 32.2282
52888.2 26.6721
52889.3 17.9850
52890.4 12.8537
52891.4 9.74567
52892.4 7.83718
52893.5 6.62326
52895.5 5.22352
52897.6 4.49828
52899.6 4.07269
52901.7 3.80366
52905.8 3.49128
52914.0 3.21432
52922.2 3.08921
52938.6 2.96161
52955.1 2.88279
53020.8 2.64114
53086.5 2.38515
53152.2 2.07755
53217.9 1.70377
53250.7 1.49766
53283.6 1.30201
53316.5 1.18323
53332.9 1.20672
53349.3 1.35242
53365.7 1.72756
53382.2 2.53889
53398.6 4.19454
53415.0 7.45962
53426.3 11.2236
53437.5 16.5710
53460.0 29.0346
53471.3 32.1618
53482.5 31.8284
53505.0 26.0493
53531.4 19.4758
53557.8 15.2515
53584.2 12.5913
53610.5 10.8314
53636.9 9.60088
53663.3 8.69931
53716.1 7.46922
53768.9 6.66371
53821.6 6.08426
53927.2 5.26149
54032.7 4.61874
54085.5 4.30015
54138.2 3.94541
54191.0 3.50406
54217.4 3.22125
54243.8 2.86679
54270.2 2.39849
54283.4 2.10272
54296.5 1.75639
54309.7 1.37059
54316.3 1.18591
54322.9 1.04996
54329.5 1.05392
54332.8 1.17049
54336.1 1.42778
54339.4 1.91589
54342.7 2.78017
54346.0 4.25714
54349.3 6.69910
54352.5 10.4119
54355.7 15.7234
54362.0 28.0681
54365.2 31.1469
54368.4 30.9205
54374.7 25.6632
54379.3 21.6331
54383.9 18.4397
54388.5 16.0260
54393.1 14.2035
54402.3 11.6989
54411.5 10.0980
54420.7 8.99837
54429.9 8.19775
54448.2 7.10190
54466.6 6.36934
54485.0 5.82309
54521.8 4.98480
54558.5 4.23012
54576.9 3.81196
54595.3 3.31887
54613.7 2.69538
54622.9 2.31190
54632.0 1.87176
54641.2 1.39366
54650.4 1.00748
54655.0 1.00226
54657.3 1.11964
54659.6 1.37454
54661.9 1.84247
54664.2 2.63350
54666.5 3.91050
54668.8 5.88752
54671.6 9.64332
54674.4 15.1444
54680.0 27.7653
54682.8 30.8253
54685.6 30.7278
54691.2 26.1097
54697.6 20.7276
54704.0 17.0388
54710.3 14.5906
54716.7 12.9077
54723.1 11.6954
54729.5 10.7887
54742.2 9.53136
54755.0 8.70231
54767.7 8.11506
54793.2 7.33332
54818.8 6.83114
54844.3 6.47635
54895.3 5.99776
54946.3 5.67976
54997.3 5.44578
55099.4 5.10996
55201.4 4.86653
55303.4 4.67116
55507.5 4.35102
55711.6 4.06558
55813.6 3.92080
55915.7 3.76634
56017.7 3.59375
56068.7 3.49769
56119.7 3.39507
56170.8 3.29318
56196.3 3.25227
56221.8 3.23551
56247.3 3.28305
56272.8 3.51342
56285.6 3.79983
56298.3 4.34355
56311.1 5.40894
56323.8 7.56832
56337.4 12.2166
56351.0 18.8630
56357.8 20.7252
56364.6 20.4060
56378.2 16.1460
56389.7 12.6641
56401.2 10.2674
56412.7 8.67760
56424.2 7.59841
56447.2 6.27707
56470.2 5.52144
56493.1 5.03696
56516.1 4.69861
56562.1 4.24699
56608.1 3.94290
56654.1 3.70691
56746.0 3.31116
56838.0 2.90759
56883.9 2.66600
56929.9 2.36708
56975.9 1.96503
56998.9 1.69978
57021.9 1.36948
57044.8 0.953642
57067.8 0.467166
57079.3 0.269391
57085.1 0.235338
57090.8 0.303926
57096.6 0.572066
57099.4 0.833863
57102.3 1.22738
57105.2 1.80781
57108.1 2.64481
57110.9 3.83977
57113.8 5.52104
57117.9 9.00384
57121.9 14.0304
57130.0 25.8616
57134.1 28.9046
57138.1 28.7858
57146.2 23.8585
57154.0 18.9719
57161.7 15.4573
57169.5 13.0358
57177.2 11.3313
57192.7 9.15573
57208.2 7.85719
57223.7 7.00442
57239.2 6.40529
57270.2 5.62346
57301.2 5.14016
57332.2 4.81928
57394.2 4.46074
57456.1 4.37977
57518.1 4.62392
57580.1 5.43764
57642.1 7.41464
57710.6 12.1939
57779.0 18.9678
57813.2 20.7861
57847.5 20.6063
57915.9 17.0875
57970.3 14.2068
58024.6 12.0491
58079.0 10.5050
58133.3 9.38801
58187.6 8.55926
58242.0 7.93307
58269.2 7.68504
58296.3 7.50008
58309.9 7.46434
58316.7 7.48449
58323.5 7.56243
58330.3 7.77247
58333.7 7.98728
58337.1 8.35762
58340.5 9.05051
58342.2 9.63302
58343.9 10.5004
58345.6 11.8716
58347.3 14.1562
58349.0 18.2008
58350.7 25.5351
58352.3 37.0611
58354.0 45.0232
58355.7 37.7621
58357.3 26.4659
58358.9 19.2844
58360.5 15.1661
58362.2 12.7163
58363.8 11.1973
58365.4 10.1904
58367.0 9.49968
58370.2 8.63143
58373.4 8.12658
58376.6 7.80416
58383.0 7.42292
58389.4 7.20461
58395.8 7.06060
58408.7 6.87287
58421.5 6.74498
58434.3 6.64447
58460.0 6.48274
58485.7 6.34824
58511.3 6.22960
58562.7 6.02334
58665.3 5.69052
58768.0 5.42677
58973.3 5.02386
59178.7 4.71942
59589.3 4.25677
60000.0 3.88022
60000.0 3.89120
60000.1 3.89114
60000.2 3.89108
60000.3 3.89097
60000.6 3.89073
60001.1 3.89026
60002.2 3.88932
60004.3 3.88745
60008.6 3.88369
60017.2 3.87620
60034.5 3.86124
60068.9 3.83139
60137.8 3.77191
60275.5 3.65309
60551.1 3.41032
60688.8 3.28302
60826.6 3.14945
60964.4 3.01029
60998.8 2.97826
61033.3 2.95875
61050.5 2.96849
61067.7 3.03600
61076.3 3.14670
61080.6 3.25861
61084.9 3.45611
61089.2 3.84472
61091.4 4.19012
61093.5 4.74027
61095.7 5.68819
61097.8 7.46983
61098.9 8.99530
61100.0 11.2710
61101.1 14.8329
61102.1 20.3255
61103.6 31.2662
61105.0 38.8307
61106.4 32.0143
61107.9 21.3767
61109.3 14.3337
61110.8 10.3834
61112.3 8.10159
61113.7 6.70947
61115.2 5.79724
61116.6 5.17816
61119.5 4.40976
61122.4 3.97116
61125.3 3.69679
61131.2 3.38343
61137.0 3.21527
61142.8 3.11293
61154.5 2.99545
61177.7 2.88438
61201.0 2.82393
61247.6 2.74305
61294.2 2.67888
61387.3 2.56851
61480.5 2.48395
61573.7 2.46162
61666.8 2.61418
61713.4 2.84760
61760.0 3.30188
61806.5 4.16540
61853.1 5.78767
61884.8 7.60357
61916.6 10.1791
61980.0 16.5216
62011.7 18.3324
62043.5 18.2408
62106.9 14.8956
62179.3 11.1336
62251.6 8.74901
62324.0 7.26816
62396.3 6.29410
62468.7 5.61138
62541.0 5.10551
62685.8 4.39434
62830.5 3.89829
62975.2 3.51068
63264.6 2.87735
63554.0 2.28379
63698.7 1.96251
63843.5 1.60137
63988.2 1.17501
64060.5 0.927848
64132.9 0.656248
64205.2 0.375942
64241.4 0.253915
64277.6 0.179971
64295.7 0.181236
64313.8 0.228506
64331.9 0.348923
64350.0 0.586867
64368.0 1.01628
64386.1 1.76204
64404.2 3.03482
64422.3 5.17412
64438.0 8.09705
64453.7 12.2896
64485.0 22.6498
64500.7 25.6365
64516.4 25.6498
64547.7 20.7867
64577.4 15.9635
64607.1 12.5745
64636.8 10.3064
64666.5 8.75880
64725.9 6.88832
64785.4 5.90879
64904.2 5.36925
65023.0 6.45691
65087.3 7.96035
65151.5 10.2840
65280.0 16.1623
65408.5 17.6927
65537.0 14.6215
65628.6 12.2307
65720.2 10.3005
65903.3 7.64177
66086.5 5.92955
66269.7 4.67244
66452.8 3.62962
66636.0 2.71916
66727.6 2.36937
66819.1 2.26559
66864.9 2.44038
66910.7 2.93715
66956.5 4.02696
67002.3 6.19676
67036.7 8.97757
67071.2 13.0467
67140.0 23.1094
67174.4 25.9811
67208.9 26.0558
67277.7 21.6277
67321.5 18.4403
67365.3 15.7840
67453.0 12.0123
67540.6 9.58979
67628.3 7.91304
67715.9 6.67930
67803.5 5.79987
67891.2 5.50132
67935.0 5.87434
67978.8 7.04100
68038.9 11.0105
68099.0 16.9446
68159.1 18.5994
68219.2 16.1091
68273.7 13.5932
68328.2 11.6498
68382.7 10.2113
68437.2 9.12353
68491.7 8.27165
68546.3 7.58687
68573.5 7.30126
68600.8 7.07866
68614.4 7.02827
68621.2 7.04391
68628.0 7.12000
68634.8 7.32835
68638.2 7.53674
68641.6 7.88355
68645.1 8.49560
68648.5 9.65755
68650.2 10.6503
68651.9 12.1259
68653.6 14.3837
68655.3 17.8407
68657.6 24.9359
68660.0 29.9172
68662.4 25.5218
68664.7 18.5377
68666.2 15.4309
68667.7 13.2414
68670.6 10.5791
68673.5 9.15476
68676.4 8.32000
68679.3 7.78986
68682.2 7.43017
68688.0 6.98010
68693.8 6.70895
68699.7 6.52464
68711.3 6.27819
68722.9 6.10628
68734.6 5.96848
68757.8 5.73982
68804.4 5.35646
68850.9 5.01115
68944.0 4.36125
69037.0 3.72654
69130.1 3.10044
69223.2 2.56856
69269.7 2.45041
69316.2 2.61907
69362.8 3.45382
69386.0 4.35754
69409.3 5.79737
69437.5 8.56252
69465.7 12.7056
69522.0 22.8613
69550.2 25.7153
69578.4 25.9820
69634.7 22.4421
69680.4 19.1158
69726.0 16.4652
69771.7 14.4693
69817.4 12.9611
69908.7 10.8787
70000.0 9.52353
70045.5 9.01208
70091.0 8.58388
70113.8 8.40530
70136.5 8.27640
70147.9 8.26325
70159.3 8.36728
70165.0 8.54667
70170.7 8.97891
70173.5 9.41987
70176.3 10.1934
70179.2 11.6524
70182.0 14.5294
70184.5 18.6951
70187.0 21.6238
70189.5 19.0380
70192.0 14.9239
70193.7 12.9001
70195.4 11.5289
70197.2 10.6007
70198.9 9.95748
70202.4 9.16000
70205.8 8.70560
70212.7 8.22683
70219.7 7.98099
70233.5 7.71734
70247.3 7.55945
70275.0 7.33819
70302.7 7.16244
70358.0 6.86344
70413.3 6.60252
70524.0 6.15035
70634.6 5.76057
70856.0 5.09264
71077.3 4.50252
71298.6 3.93525
71519.9 3.34763
71630.6 3.03302
71741.2 2.70030
71796.6 2.53226
71851.9 2.38651
71879.6 2.35404
71893.4 2.37048
71907.2 2.43929
71921.1 2.62964
71928.0 2.82590
71934.9 3.16489
71941.8 3.79403
71948.7 5.08960
71952.2 6.28557
71955.7 8.22584
71959.1 11.5320
71962.6 17.2626
71966.3 26.9035
71970.0 33.7051
71973.7 27.7842
71977.4 18.3367
71981.9 11.2920
71986.4 7.70659
71990.8 5.77076
71995.3 4.63261
71999.7 3.90961
72004.2 3.42303
72013.1 2.82160
72022.0 2.46944
72030.9 2.23832
72048.7 1.94456
72066.5 1.75263
72084.3 1.60523
72119.9 1.36707
72191.1 0.962417
72262.4 0.588268
72333.6 0.271049
72369.2 0.170579
72387.0 0.148304
72404.8 0.153248
72422.7 0.194449
72440.5 0.283818
72458.3 0.437003
72476.1 0.674330
72493.9 1.02264
72511.7 1.51584
72529.5 2.19630
72547.3 3.11405
72581.7 5.76994
72616.2 9.81732
72685.0 19.8000
72719.4 22.6484
72753.9 23.0762
72822.7 20.1927
72879.5 17.4152
72936.3 15.4108
72993.0 14.4525
73021.4 14.5556
73049.8 15.3465
73082.4 17.7587
73115.0 22.0955
73131.3 23.6450
73147.6 23.1998
73180.2 18.0228
73202.8 14.7429
73225.4 12.5498
73248.1 11.1170
73270.7 10.1461
73315.9 8.93732
73361.1 8.21365
73451.6 7.37697
73542.0 6.92731
73632.5 6.70640
73723.0 6.67378
73768.2 6.72808
73813.4 6.83561
73836.0 6.91578
73858.6 7.03172
73870.0 7.12617
73881.3 7.30885
73886.9 7.50616
73892.6 7.94515
73895.4 8.41591
73898.2 9.34122
73899.6 10.1793
73901.0 11.5066
73902.5 13.7236
73903.9 17.4980
73905.4 23.9931
73907.0 28.5847
73908.6 24.6526
73910.1 18.3433
73912.0 13.6569
73913.9 11.2638
73915.8 9.97794
73917.6 9.23279
73921.3 8.45800
73925.1 8.09492
73932.5 7.79263
73940.0 7.69120
73949.4 7.66111
73958.8 7.67676
73977.5 7.76604
74015.0 8.04233
74090.0 8.79961
74240.0 10.9755
74540.0 16.4319
74840.0 18.0501
75140.0 15.7553
75357.5 13.6368
75574.9 11.5612
75683.6 10.4364
75738.0 9.79281
75792.4 9.04135
75846.7 8.10319
75901.1 6.83939
75928.3 6.02616
75955.4 5.09146
75982.6 4.20673
75996.2 3.98588
76009.8 4.18349
76026.1 5.45663
76042.4 8.27207
76058.7 12.0259
76075.0 15.1226
76107.6 17.1097
76140.2 16.4283
76164.8 15.6358
76189.5 14.9044
76238.7 13.7431
76288.0 12.8993
76337.3 12.2599
76435.8 11.3354
76534.4 10.6725
76632.9 10.1531
76731.4 9.72318
76780.7 9.53396
76830.0 9.36516
76854.6 9.29702
76879.2 9.26740
76891.6 9.30175
76903.9 9.46311
76910.0 9.69604
76913.1 9.91397
76916.2 10.2731
76919.3 10.9123
76922.4 12.1815
76923.9 13.3183
76925.4 15.1169
76927.0 18.0902
76928.5 23.0456
76930.3 31.7472
76932.0 37.9335
76933.8 32.5522
76935.5 23.8997
76936.7 19.8160
76937.8 17.0113
76940.1 13.7652
76942.4 12.1058
76944.8 11.1676
76947.1 10.5883
76949.4 10.2091
76954.0 9.75513
76958.6 9.50049
76963.3 9.34105
76972.5 9.15232
76991.0 8.96547
77009.5 8.85803
77046.5 8.70724
77083.5 8.58395
77120.5 8.47191
77157.5 8.37249
77176.0 8.33798
77194.5 8.35054
77203.8 8.42249
77213.0 8.66877
77217.6 8.99813
77222.3 9.76892
77224.6 10.5787
77226.9 12.0684
77229.2 15.1075
77230.4 17.8149
77231.5 21.8104
77233.3 30.6849
77235.0 36.9746
77236.8 31.7371
77238.5 23.3321
77239.9 18.7816
77241.2 15.8431
77242.6 13.9205
77243.9 12.6240
77246.6 11.0644
77249.3 10.2065
77252.0 9.68371
77254.7 9.34277
77260.1 8.93370
77265.5 8.70186
77270.9 8.55446
77281.7 8.37619
77303.4 8.19302
77325.0 8.08484
77368.2 7.93207
77411.4 7.80751
77497.9 7.58427
77584.3 7.37288
77757.2 6.95222
77930.2 6.50072
78103.1 5.96481
78189.5 5.63526
78276.0 5.23501
78362.4 4.72530
78405.7 4.41329
78448.9 4.05733
78492.1 3.67076
78535.4 3.34116
78557.0 3.29565
78578.6 3.48201
78600.2 4.18688
78621.8 6.00803
78636.4 8.36259
78650.9 11.9661
78680.0 21.1095
78709.1 24.3398
78738.2 21.5831
78759.7 19.0467
78781.3 16.9441
78802.8 15.3092
78824.3 14.0473
78867.4 12.2756
78910.4 11.1151
78953.4 10.3023
78996.5 9.70150
79082.6 8.86648
79168.7 8.30352
79254.8 7.88837
79297.8 7.71697
79340.9 7.56648
79362.4 7.50298
79383.9 7.46345
79394.7 7.47422
79405.4 7.56612
79410.8 7.71134
79416.2 8.08506
79418.9 8.50764
79421.6 9.35788
79422.9 10.1297
79424.3 11.3492
79425.6 13.3928
79426.9 16.8197
79428.5 22.8498
79430.0 27.1350
79431.5 23.5038
79433.1 17.6414
79434.2 14.6445
79435.3 12.6483
79436.4 11.3191
79437.5 10.4182
79439.7 9.31061
79441.9 8.69842
79446.4 8.07830
79450.8 7.78373
79459.6 7.51124
79468.5 7.38271
79486.2 7.24890
79503.9 7.16784
79539.4 7.05089
79574.8 6.95548
79645.7 6.78926
79716.5 6.64037
79858.3 6.37211
80000.0 6.12787
80470.0 5.38037
80705.0 5.00033
80940.0 4.59380
81175.0 4.15300
81410.0 3.70728
81527.5 3.53222
81645.0 3.47926
81762.5 3.73625
81880.0 4.72509
81955.0 6.07463
82030.0 8.19767
82180.0 13.5681
82330.0 15.4856
82480.0 14.0305
82613.1 12.3516
82746.1 10.9816
82812.6 10.4378
82879.2 10.0156
82912.4 9.89138
82929.1 9.87746
82945.7 9.92662
82962.3 10.0973
82979.0 10.5349
82987.3 10.9630
82995.6 11.6612
83003.9 12.8319
83012.2 14.7945
83022.1 18.3958
83032.0 20.9549
83041.9 18.7158
83051.8 15.1201
83059.2 13.2304
83066.5 11.9765
83073.9 11.1400
83081.3 10.5648
83096.0 9.84863
83110.8 9.43225
83125.5 9.16345
83140.3 8.97704
83169.8 8.74543
83199.3 8.64224
83228.8 8.67330
83258.3 8.92298
83287.8 9.59394
83313.9 10.6775
83340.0 11.4162
83366.1 10.5528
83392.2 9.23812
83410.8 8.54963
83429.4 8.05749
83466.5 7.41925
83503.7 7.00378
83540.9 6.68107
83689.5 5.56927
83763.8 4.92115
83838.2 4.10540
83912.5 3.13972
83949.6 2.85472
83968.2 2.97110
83986.8 3.47736
84006.9 4.75548
84026.9 7.03306
84047.0 10.0306
84067.0 12.7464
84107.1 14.7133
84147.2 13.8540
84179.0 12.8478
84210.7 11.9563
84242.5 11.2244
84274.2 10.6303
84337.8 9.73993
84401.3 9.10660
84528.3 8.24998
84655.4 7.67074
84909.4 6.85568
85163.5 6.20727
85417.6 5.56437
85544.6 5.20644
85671.7 4.80079
85798.7 4.33013
85925.7 3.80936
85989.3 3.58446
86052.8 3.51242
86116.3 3.93731
86148.1 4.60395
86179.8 5.86877
86209.9 7.93166
86239.9 11.1134
86300.0 19.4409
86360.1 22.6735
86420.2 20.1997
86472.7 17.4421
86525.2 15.2593
86577.7 13.6480
86630.2 12.4535
86735.2 10.8420
86840.2 9.81901
86945.2 9.11179
87050.2 8.58948
87260.2 7.85392
87470.2 7.33872
87680.2 6.93447
87785.2 6.75558
87890.2 6.58529
87995.2 6.42055
88047.7 6.35752
88060.8 6.36410
88074.0 6.42829
88080.5 6.53652
88087.1 6.83581
88090.4 7.20034
88093.6 8.00160
88095.3 8.79527
88096.9 10.1861
88098.6 12.8280
88100.2 18.1239
88101.6 25.7425
88103.0 31.1625
88104.4 26.6467
88105.8 19.3398
88106.9 15.2550
88108.1 12.6506
88109.2 10.9812
88110.3 9.88254
88112.6 8.57650
88114.8 7.87147
88119.3 7.17556
88123.8 6.85394
88132.8 6.56471
88141.8 6.43492
88159.9 6.31009
88177.9 6.24216
88213.9 6.15271
88249.9 6.08236
88394.0 5.83185
88538.1 5.56977
88682.2 5.26602
88826.3 4.88691
88898.3 4.65376
88970.3 4.38163
89042.4 4.06833
89114.4 3.74444
89150.4 3.62283
89186.5 3.60386
89222.5 3.83667
89258.5 4.63920
89283.9 5.83779
89309.3 7.76853
89334.6 10.3151
89360.0 12.7960
89410.8 14.7547
89461.5 13.6337
89520.1 11.8832
89578.8 10.5760
89637.4 9.66369
89696.0 9.01116
89754.6 8.52603
89813.3 8.15477
89842.6 8.00533
89871.9 7.89250
89886.5 7.87083
89901.2 7.93281
89908.5 8.06323
89915.9 8.41744
89919.5 8.82116
89923.2 9.62144
89925.0 10.3308
89926.8 11.4359
89928.7 13.2196
89930.5 16.1261
89932.8 21.5654
89935.0 25.4781
89937.3 22.2528
89939.5 16.9739
89941.4 13.9161
89943.3 12.0170
89945.2 10.8187
89947.1 10.0328
89950.9 9.11262
89954.6 8.61773
89962.2 8.12436
89969.8 7.88641
89984.9 7.65160
90000.0 7.52570
90037.1 7.34123
90074.2 7.21242
90148.5 7.00924
90222.7 6.84126
90297.0 6.69396
90445.4 6.43604
90593.9 6.20036
90742.4 5.95612
90816.6 5.81596
90890.9 5.64757
90965.1 5.42250
91002.2 5.26976
91039.3 5.06835
91076.5 4.78270
91095.0 4.58745
91113.6 4.33767
91132.1 4.01113
91150.7 3.59022
91169.3 3.17817
91178.5 3.22949
91187.8 4.07918
91192.6 5.23497
91197.4 7.13289
91207.0 12.1001
91216.6 14.0680
91226.2 13.1003
91232.4 12.1879
91238.5 11.3676
91250.9 10.1188
91263.2 9.27793
91275.5 8.69377
91287.8 8.26936
91300.2 7.94904
91324.8 7.49907
91349.5 7.19745
91374.1 6.98018
91423.4 6.68414
91472.7 6.48725
91522.1 6.34293
91620.7 6.13673
91719.3 5.98751
91817.9 5.86769
92015.1 5.67271
92212.4 5.50632
92409.6 5.35067
92606.8 5.19414
92705.4 5.11081
92754.7 5.07259
92779.4 5.09902
92785.6 5.15192
92791.7 5.31201
92794.8 5.52245
92797.9 6.02664
92799.4 6.57313
92801.0 7.63211
92802.5 9.97653
92803.3 12.2378
92804.0 15.8901
92805.0 22.8689
92806.0 27.9399
92807.0 23.8234
92808.0 17.0949
92809.1 12.0500
92810.3 9.44310
92811.5 8.03316
92812.6 7.21063
92815.0 6.33427
92817.3 5.90872
92822.0 5.51805
92826.6 5.34635
92836.0 5.19589
92845.3 5.12853
92864.0 5.06235
92882.7 5.02498
92957.4 4.93187
93106.7 4.77604
93256.1 4.60376
93405.5 4.39341
93554.9 4.11365
93629.6 3.92975
93704.3 3.69937
93779.0 3.40215
93816.4 3.22159
93853.7 3.01965
93891.1 2.80852
93928.4 2.64005
93965.8 2.70249
93984.4 2.98697
94003.1 3.64331
94019.8 4.75579
94036.6 6.54192
94070.0 11.2922
94103.5 13.2578
94136.9 12.1976
94159.0 11.1901
94181.1 10.3016
94203.2 9.58020
94225.3 9.01598
94247.4 8.60054
94269.4 8.37572
94280.5 8.40008
94291.5 8.64908
94297.1 8.95551
94302.6 9.51085
94308.1 10.5346
94313.6 12.4261
94319.3 15.5732
94325.0 17.8343
94330.7 15.9048
94336.4 12.7681
94340.6 11.1232
94344.8 10.0221
94349.0 9.27762
94353.2 8.76075
94361.6 8.10682
94369.9 7.71764
94378.3 7.45802
94386.7 7.26989
94403.5 7.00588
94420.3 6.81967
94437.0 6.67441
94470.6 6.45023
94504.1 6.27652
94537.7 6.13342
94604.7 5.90491
94671.8 5.72574
94738.9 5.57846
94873.1 5.34392
95141.4 5.00109
95409.8 4.73338
95678.1 4.49399
95946.5 4.26049
96214.8 4.02080
96281.9 3.96311
96349.0 3.92037
96382.5 3.92280
96399.3 3.94294
96416.1 3.99339
96432.8 4.11399
96441.2 4.23249
96449.6 4.43256
96458.0 4.79627
96466.4 5.52757
96470.6 6.18774
96474.8 7.23060
96479.0 8.94907
96483.1 11.8192
96488.1 17.0294
96493.0 20.8064
96497.9 17.7711
96502.9 12.7588
96507.2 9.73595
96511.6 7.89148
96516.0 6.75089
96520.3 6.01413
96529.1 5.16430
96537.8 4.71405
96546.6 4.44517
96555.3 4.27036
96572.8 4.05916
96590.2 3.93602
96607.7 3.85357
96642.6 3.74398
96712.5 3.60416
96782.4 3.49546
96922.2 3.30058
96957.1 3.26228
96992.1 3.25588
97009.5 3.29882
97027.0 3.46670
97035.7 3.70075
97040.1 3.91626
97044.5 4.26445
97048.8 4.86889
97053.2 6.01489
97055.4 6.99244
97057.6 8.45187
97059.8 10.6965
97061.9 14.1570
97065.0 21.3435
97068.0 26.5374
97071.0 22.3581
97074.1 15.4834
97076.2 12.0642
97078.3 9.74723
97080.4 8.16625
97082.5 7.07422
97086.7 5.71833
97090.9 4.95350
97095.1 4.47980
97099.3 4.16689
97107.7 3.78752
97116.1 3.57107
97124.6 3.43277
97141.4 3.26470
97175.0 3.08952
97208.7 2.98226
97276.0 2.82003
97343.3 2.67405
97477.9 2.37269
97612.4 2.03084
97747.0 1.63435
97881.6 1.20472
97948.9 1.02797
98016.2 0.987046
98049.9 1.09184
98083.5 1.36545
98117.2 1.93030
98150.8 2.98850
98181.9 4.65931
98212.9 7.24500
98275.0 14.3855
98306.1 16.9163
98337.1 17.5606
98399.2 15.2212
98469.3 11.8338
98539.4 9.43124
98609.4 7.83156
98679.5 6.74593
98819.7 5.55979
98959.8 5.62932
99031.1 6.39610
99102.4 7.85473
99245.0 12.0354
99372.5 13.7371
99500.0 12.9004
99500.0 12.3911
99649.9 10.1778
99739.0 9.02658
99828.2 8.27073
99939.8 7.95307
100000 7.83343
100074 7.68638
100209 7.11853
100343 6.77847
100479 6.51004
100614 5.86862
100750 6.04595
100885 5.82604
100999 5.36887
101090 5.38451
101181 6.24991
101272 7.98779
101363 7.48805
101455 7.29058
101546 6.21681
101638 5.67185
101730 5.69567
101821 5.65461
101913 5.70833
102006 5.56199
102098 5.72445
102190 5.89344
102283 7.03911
102375 6.36657
102468 5.61964
102561 4.80547
102654 4.78940
102747 4.49870
102840 5.12323
102922 4.65111
102992 6.00891
103063 6.46508
103133 7.59470
103203 6.33141
103274 4.84868
103368 4.20939
103485 4.70993
103603 4.29966
103721 3.90876
103839 4.34994
103958 3.49303
104077 3.48211
104195 3.15039
104291 2.93209
104362 2.40694
104434 2.60575
104506 3.36357
104577 5.98660
104649 6.79276
104721 5.78066
104829 5.73493
104973 5.15252
105118 4.59565
105263 4.19273
105408 3.51943
105553 3.23433
105699 3.54340
105845 2.97112
105991 3.26383
106138 3.88787
106285 4.48022
106432 5.67360
106543 7.24215
106617 8.80634
106690 10.2008
106764 12.3338
106839 14.0736
106913 15.0957
106987 16.8707
107061 17.2705
107136 15.6906
107210 13.3420
107285 10.8082
107359 8.89848
107434 11.8236
107509 17.1631
107584 17.3906
107659 16.7124
107734 16.2398
107846 15.4029
107997 14.3435
108148 12.9575
108299 12.0014
108476 11.1511
108678 10.3218
108881 9.75153
109085 9.02135
109289 8.81057
109494 8.21040
109699 7.82672
109905 7.85003
110112 7.31385
110267 6.85464
110371 7.87456
110474 6.86894
110578 6.08675
110683 6.19055
110787 5.89366
110891 6.07593
110996 6.64929
111101 7.61031
111205 10.6471
111311 9.90678
111416 8.36767
111521 7.82839
111627 7.27740
111710 6.82636
111732 6.70681
111851 6.95449
111984 7.01461
112116 6.35673
112249 5.97365
112382 6.30903
112516 6.30008
112649 5.81267
112770 6.05935
112877 5.99918
112985 6.88316
113092 5.97468
113200 5.23592
113308 5.74873
113416 6.35478
113524 7.44642
113632 5.85147
113741 5.36714
113834 5.20939
113890 5.14525
113945 4.69027
113999 4.48861
114053 5.63721
114108 6.97317
114163 8.89898
114217 8.34672
114272 7.54539
114326 6.50464
114381 6.72260
114436 6.50117
114491 5.50499
114546 5.57076
114600 5.63627
114683 6.06103
114793 5.45499
114903 5.20800
115013 5.21890
115124 4.84769
115234 4.67010
115345 4.85910
115456 4.84296
115567 4.50551
115679 4.34482
115790 4.22862
115902 3.98897
116013 4.15080
116125 3.88041
116237 3.55698
116350 3.64442
116441 3.67966
116511 4.55942
116582 5.06890
116652 4.37660
116723 3.43933
116793 2.24880
116864 1.99026
116934 3.26951
117005 5.39808
117076 5.99985
117147 5.13546
117218 5.35643
117289 6.31072
117360 8.70533
117431 12.2751
117502 14.6513
117574 14.5652
117645 11.8641
117716 10.9150
117788 8.82250
117859 8.12592
117931 7.36036
118003 7.20323
118074 6.93561
118146 7.12283
118218 6.85581
118290 5.55540
118362 4.49694
118434 3.76256
118506 3.54800
118578 3.37462
118651 2.98801
118723 2.79645
118795 3.75968
118868 6.95564
118940 10.3645
119013 13.7430
119086 15.1694
119158 14.1353
119231 12.8842
119304 11.5624
119377 10.0098
119450 9.69907
119523 9.28438
119596 8.94994
119691 7.77280
119808 7.23341
119926 6.58141
120044 6.25055
120161 5.96795
120279 5.83288
120397 5.82303
120516 5.00619
120634 4.93578
120753 4.50144
120872 4.30771
120991 3.94462
121110 3.57774
121229 3.46213
121319 3.17928
121379 3.43191
121439 4.21188
121499 5.26905
121559 7.44485
121619 9.07746
121679 10.3074
121739 10.2522
121799 8.37503
121859 7.02741
121919 6.85251
121979 5.81578
122040 5.20795
122100 5.05757
122161 4.95475
122229 3.85698
122304 3.91790
122380 4.17203
122456 3.23843
122531 2.85027
122607 3.37590
122683 3.84610
122759 3.47187
122836 2.00502
122912 1.45105
122988 0.676929
123064 1.79803
123141 3.94574
123217 7.45295
123294 13.0638
123370 17.4948
123447 20.1732
123524 19.7289
123601 18.8085
123677 17.4206
123754 15.6895
123831 14.5212
123932 13.5097
124055 12.2904
124179 10.9102
124303 10.5704
124427 10.4251
124551 10.5078
124676 9.17388
124801 8.64962
124926 9.04979
125051 8.28775
125176 7.69476
125301 7.51330
125427 7.26461
125553 7.07805
125679 6.79057
125805 6.41538
125931 6.16119
126058 5.92465
126185 5.65615
126312 4.89398
126407 4.95672
126471 5.58539
126534 7.04989
126598 10.0779
126662 12.0109
126726 11.6532
126789 10.1264
126853 9.24361
126917 8.90125
126981 8.41496
127045 7.71686
127109 7.82423
127174 7.34094
127238 7.23424
127302 7.98152
127366 8.13591
127431 8.29424
127495 7.41541
127559 7.06050
127672 6.88484
127834 6.55986
127996 6.38019
128158 6.64198
128320 6.36251
128483 6.04701
128646 5.84976
128810 5.72682
128973 5.53494
129137 5.56681
129302 5.28633
129466 5.01076
129631 4.80810
129797 4.84778
129962 4.54483
130128 4.54692
130294 4.38898
130461 4.39893
130628 4.37376
130795 4.04558
130962 3.95352
131130 3.21887
131298 3.07473
131416 3.02501
131484 2.39743
131551 3.15951
131619 4.02858
131686 4.85818
131754 7.43169
131822 10.7734
131889 14.1403
131957 14.9332
132025 14.5683
132093 12.9348
132161 11.0005
132229 9.44423
132297 8.63850
132365 7.23252
132433 6.54841
132502 5.74473
132570 5.19456
132638 4.67030
132707 4.17639
132775 3.94036
132844 3.85352
132912 4.78076
132981 6.96558
133049 9.94099
133118 12.3930
133187 12.6567
133256 11.1049
133324 9.93245
133393 9.35276
133462 8.02397
133531 7.34258
133600 7.28415
133670 7.53233
133739 8.40618
133808 9.23724
133877 8.50534
133947 7.63624
134016 7.66227
134094 7.59444
134181 6.89140
134268 6.53609
134355 6.44948
134442 5.81570
134530 5.31401
134617 4.90504
134704 4.63375
134792 4.15763
134871 3.39670
134941 3.23528
135011 3.53642
135081 2.76345
135151 3.55561
135222 4.52268
135292 4.12678
135363 4.01400
135433 4.28567
135504 5.19172
135574 7.39832
135645 9.68553
135716 11.9627
135786 13.7109
135857 14.4117
135928 14.7300
135999 13.7202
136070 13.1636
136141 13.0310
136212 12.4592
136283 12.9264
136355 13.6153
136426 13.9690
136497 13.4691
136569 11.8074
136640 10.8311
136712 9.59781
136783 8.81955
136855 8.23584
136926 8.37195
137016 8.21773
137124 7.74398
137232 7.72685
137340 7.61485
137448 7.82413
137556 7.36329
137664 6.98154
137773 7.04765
137881 6.49517
137990 6.31924
138099 6.12886
138208 6.65255
138317 6.72769
138426 5.82527
138536 5.75127
138645 5.92977
138755 5.47198
138865 4.69498
138975 4.79691
139085 4.73129
139195 4.39904
139305 3.94007
139416 3.22720
139526 3.50639
139618 3.50011
139692 4.37651
139766 6.03211
139840 7.40348
139914 9.04102
139988 11.9545
140062 12.4072
140137 11.9608
140211 10.9403
140285 10.2645
140360 9.57858
140434 8.70792
140509 8.96401
140583 8.19126
140658 8.40794
140732 8.23358
140807 8.90281
140882 9.16163
140957 9.34628
141032 8.08773
141107 7.56290
141182 6.90619
141257 6.87592
141351 6.57756
141464 6.49783
141577 6.29189
141690 6.51679
141803 6.48307
141917 5.87144
142030 5.97605
142144 6.17194
142258 5.95702
142372 6.15381
142486 5.85405
142600 5.68177
142714 5.73956
142829 5.31261
142943 5.66507
143058 5.64988
143173 5.40217
143288 5.09882
143403 4.79204
143519 4.66688
143634 4.10480
143731 4.28562
143808 3.85549
143885 5.78134
143962 7.83846
144039 9.20798
144117 8.48174
144194 7.09853
144272 6.61119
144349 7.00965
144427 6.50486
144534 6.54322
144670 6.25729
144806 5.64929
144943 5.67404
145080 5.47330
145217 5.42628
145354 4.72193
145491 4.74413
145629 4.72696
145766 4.41693
145904 4.44841
146042 4.75223
146181 4.23214
146299 3.71129
146399 4.00227
146498 3.84669
146597 4.81997
146696 6.37565
146796 6.95416
146895 6.91189
146995 5.61836
147095 4.74352
147204 4.29605
147324 4.43101
147444 3.55863
147565 3.79432
147685 3.10606
147806 2.96366
147906 2.23283
147987 2.93803
148067 3.43898
148148 4.52661
148229 6.45205
148310 7.98894
148390 6.29820
148471 4.60655
148552 3.11239
148633 2.95614
148715 4.04786
148796 5.76972
148877 7.45751
148958 7.72575
149040 7.26685
149121 8.33577
149203 10.7739
149284 12.9522
149366 12.7964
149448 12.3789
149540 12.0967
149642 10.9985
149744 10.4154
149847 9.58138
149950 9.71618
150052 9.35501
150155 9.13243
150258 8.42737
150361 8.43152
150465 8.15217
150568 7.99878
150671 7.67674
150775 7.33971
150878 7.08401
150982 6.95629
151086 7.19715
151190 7.23048
151294 6.69487
151398 6.76256
151502 6.03615
151607 5.89186
151711 6.02064
151816 6.65512
151920 7.01096
152025 6.23158
152130 6.18332
152235 6.74241
152340 6.71459
152445 6.10746
152551 5.27694
152656 5.55666
152772 5.36220
152899 5.31687
153026 5.18991
153153 5.04737
153281 4.73955
153408 3.93944
153536 5.88288
153664 8.10352
153791 7.90124
153920 7.22487
154048 6.69528
154176 7.59608
154305 7.49751
154434 6.35940
154562 5.47285
154692 5.06643
154821 5.06350
154950 4.95457
155080 4.59699
155188 4.18647
155274 4.53896
155361 5.31935
155448 5.33956
155534 4.96886
155621 5.40137
155708 5.80742
155795 6.36919
155882 7.01890
155969 5.85364
156057 4.62734
156144 3.48268
156231 3.23944
156319 4.23036
156406 6.80580
156494 9.36598
156581 10.0736
156669 9.13906
156757 8.18854
156845 7.22883
156933 6.79449
157021 6.42399
157109 6.35024
157197 6.32772
157285 6.36215
157396 6.05680
157528 6.22522
157661 6.15312
157794 5.91359
157927 5.65097
158060 5.32421
158194 5.03190
158328 5.06582
158461 4.93480
158595 4.95207
158729 5.10640
158864 5.07756
158998 4.49471
159133 4.41404
159268 4.47575
159403 4.48637
159515 4.46669
159606 5.22924
159696 6.80739
159786 7.19981
159877 5.91327
159967 5.02628
160058 4.52536
160148 4.55197
160250 4.40520
160364 4.51330
160478 4.60313
160591 3.81813
160705 3.49632
160819 3.44260
160934 3.35993
161048 3.44355
161162 4.06227
161277 3.97237
161391 4.27532
161506 4.29670
161621 4.75846
161736 6.20868
161851 6.79005
161966 7.90651
162082 8.48867
162197 8.94382
162313 8.93555
162428 9.07903
162544 9.42009
162660 9.58218
162776 9.54860
162893 8.77846
163009 7.80702
163126 7.24693
163242 7.02672
163359 7.12647
163476 7.19761
163593 7.65593
163710 7.22178
163827 6.89358
163944 6.77505
164062 7.11239
164179 6.78448
164297 5.65285
164415 5.39063
164533 6.09978
164651 6.76864
164769 6.73223
164888 5.07377
165006 4.25436
165125 4.26616
165244 4.15734
165363 3.94892
165470 3.09247
165565 2.66737
165660 2.78149
165756 4.06019
165851 5.85831
165947 5.94069
166043 5.23261
166139 4.90221
166234 4.75328
166330 4.60445
166426 4.90631
166523 5.60244
166619 6.81188
166715 9.42268
166811 10.9211
166908 11.9135
167004 12.4300
167101 11.3340
167198 10.8352
167294 10.1408
167391 9.34484
167488 8.89180
167585 8.60776
167682 8.47921
167780 8.55439
167877 7.93251
167987 6.74038
168108 6.64850
168230 6.67839
168353 6.17362
168475 5.87940
168597 5.44193
168720 5.56552
168842 4.90945
168965 5.48569
169088 6.37980
169211 6.72873
169334 7.29753
169458 6.46206
169581 5.84225
169705 5.34210
169828 4.75949
169940 4.21821
170039 4.95332
170138 5.98153
170238 8.20969
170337 7.35922
170437 6.24224
170536 5.01926
170636 4.43280
170736 4.43762
170836 6.75880
170936 8.52264
171036 9.04185
171136 8.60605
171236 7.71769
171336 6.96627
171437 6.69738
171537 6.31675
171638 5.88691
171739 5.75198
171865 5.42101
172016 5.21652
172167 4.75735
172319 4.93162
172471 4.87589
172623 5.61372
172776 5.84210
172928 4.85893
173081 4.43111
173234 4.67397
173387 4.48128
173540 3.78603
173694 3.54267
173848 2.66565
174002 2.42718
174156 2.31613
174310 1.84039
174465 2.46912
174620 4.47374
174775 5.89150
174930 6.90423
175085 7.17706
175241 8.23204
175397 9.06761
175553 11.1979
175709 12.2611
175865 12.4641
176022 11.6658
176179 10.8243
176336 10.2557
176493 9.64886
176651 8.77641
176808 8.40409
176966 8.27207
177125 7.38163
177283 7.53050
177441 7.38445
177600 7.14233
177759 7.45742
177918 8.00075
178078 7.42678
178237 6.63471
178397 6.70935
178557 6.18379
178718 6.28559
178878 5.89494
179039 5.79241
179200 6.19312
179361 6.05056
179522 5.57185
179684 5.94867
179846 5.97698
180008 6.08731
180170 6.00038
180332 5.33724
180495 4.92395
180658 4.97144
180821 4.76514
180984 4.52353
181148 3.93548
181312 3.62749
181448 4.07557
181558 5.46391
181667 7.34346
181777 7.62384
181886 6.97631
181996 6.26922
182106 5.57545
182216 5.72488
182326 5.07317
182450 4.86499
182588 5.29445
182726 5.43508
182865 5.09566
183003 5.07799
183142 4.30562
183280 4.22763
183419 3.94400
183544 3.73619
183656 3.34632
183767 3.23367
183879 2.87874
183990 2.96263
184102 3.73981
184214 5.47509
184326 8.22059
184438 9.18087
184550 9.13061
184662 8.81435
184775 7.66603
184887 7.06228
185000 6.04937
185112 5.27492
185225 4.28716
185338 3.76704
185451 3.23494
185564 3.61999
185677 4.30087
185790 6.17305
185904 8.66070
186017 10.4441
186131 10.8796
186245 9.93236
186358 9.12557
186472 8.30650
186586 7.23822
186700 7.11736
186815 7.27827
186929 8.15899
187043 8.75006
187158 8.08366
187272 7.38961
187387 6.81442
187502 6.76280
187631 6.35114
187775 6.46116
187919 5.99692
188063 5.65280
188208 6.14305
188352 6.32258
188497 6.49704
188642 7.00892
188787 5.88479
188932 5.40002
189077 5.51676
189223 5.75528
189369 6.10537
189514 6.17189
189661 5.05054
189807 4.69393
189953 4.46801
190100 4.62499
190246 5.01785
190393 5.08657
190540 3.73671
190687 3.08602
190835 2.58245
190982 2.82058
191130 4.46668
191278 7.10861
191426 8.12691
191574 7.05338
191723 6.75523
191871 6.89937
192020 7.91110
192169 8.35581
192318 7.62783
192467 6.61978
192617 5.76461
192766 5.97615
192916 6.40432
193066 6.43839
193216 5.49006
193367 5.35603
193517 5.34856
193668 4.94266
193819 5.19975
193970 4.98497
194121 4.52213
194272 4.50456
194424 3.87240
194576 3.39579
194728 3.47991
194880 5.14620
195032 7.48866
195184 10.1110
195337 10.9635
195490 8.43914
195643 6.95777
195796 6.82162
195949 6.71974
196103 6.24395
196257 6.17032
196411 6.12516
196565 6.07531
196719 5.65878
196873 5.20024
197028 5.40888
197183 6.38421
197338 6.84916
197493 5.70344
197648 5.41455
197804 4.85563
197959 5.18307
198115 4.88880
198271 4.52978
198428 4.44273
198584 3.86284
198741 3.59966
198898 3.43519
199055 3.62775
199212 4.21589
199369 5.44299
199527 6.96111
199684 7.28254
199842 6.45100
200000 5.68844
200001 5.68361
200159 5.41826
200317 4.84903
200476 4.73125
200635 4.45418
200794 4.65707
200953 5.04909
201113 3.80758
201272 3.65586
201432 4.72925
201592 6.90555
201752 7.22197
201913 5.71119
202073 4.64461
202234 4.68737
202395 5.61502
202556 7.99532
202718 8.93599
202879 8.41135
203041 7.07731
203203 6.54633
203365 6.35892
203527 5.94426
203690 6.00075
203853 5.55884
204016 5.60964
204179 5.82902
204342 5.84917
204505 5.23885
204669 5.47750
204833 5.00503
204997 4.65651
205161 4.43799
205326 3.73225
205491 3.70017
205656 4.47235
205821 5.39988
205986 5.82065
206151 6.19032
206317 5.75499
206483 5.50883
206649 4.90548
206815 4.09307
206982 4.06943
207148 4.06557
207315 4.00876
207482 5.74550
207650 7.07632
207817 6.82129
207985 5.40615
208153 4.11596
208321 3.81886
208489 3.34344
208658 3.67216
208826 4.95321
208995 6.77695
209164 6.80393
209334 5.31379
209503 4.51883
209673 4.22830
209843 4.03575
210013 4.33706
210183 5.03540
210354 6.54859
210525 7.64541
210696 6.01237
210867 4.30013
211038 3.79991
211210 5.01952
211382 6.99461
211554 5.84470
211726 4.79788
211898 3.69994
212071 3.90986
212244 5.19577
212417 7.40562
212590 9.05899
212764 9.65361
212938 9.84844
213112 9.23430
213286 8.23218
213460 7.59032
213635 7.20682
213809 6.78971
213984 6.32542
214160 6.07401
214335 5.97954
214511 5.75617
214686 5.88015
214863 6.18823
215039 5.71474
215215 5.27042
215392 5.23234
215569 5.17105
215746 4.82397
215924 4.89049
216101 4.50670
216279 4.87846
216457 5.75674
216635 5.56289
216814 4.48912
216992 4.19267
217171 3.47759
217351 3.54388
217530 3.41883
217709 3.37448
217889 3.33239
218069 3.07673
218250 2.42155
218430 2.84868
218611 3.59039
218792 2.84053
218973 2.57641
219154 2.54097
219336 4.61489
219518 7.09535
219700 7.91354
219882 7.62735
220065 6.06306
220247 6.01436
220430 5.53507
220613 4.93181
220797 4.57684
220980 4.44680
221164 4.04082
221348 3.77888
221533 3.16957
221717 3.99611
221902 6.07848
222087 7.19280
222272 7.38623
222458 8.06058
222644 7.94068
222830 8.04470
223016 8.39705
223202 8.29033
223389 8.28753
223576 7.96874
223763 7.96122
223950 7.22949
224138 7.51782
224326 7.24011
224514 6.53049
224702 5.89059
224891 6.10035
225079 6.21952
225268 5.51653
225458 4.71110
225647 4.52110
225837 3.67725
226027 4.79652
226217 6.60651
226408 5.70949
226598 3.84893
226789 3.41822
226980 5.74459
227172 8.32163
227364 9.06662
227555 8.01248
227748 7.33889
227940 6.86150
228133 6.85705
228325 6.40988
228519 5.90912
228712 6.22944
228906 6.17416
229099 5.77467
229294 5.15997
229488 5.03103
229682 4.90486
229877 5.32564
230072 5.88926
230268 5.62649
230463 4.71899
230659 4.07315
230855 3.91771
231052 3.95925
231248 3.84271
231445 3.82911
231642 3.48144
231840 3.67497
232037 3.92721
232235 3.96682
232433 3.19444
232631 3.39550
232830 5.07773
233029 6.55010
233228 5.99101
233427 5.45737
233627 4.97558
233827 3.77966
234027 3.87328
234228 3.54914
234428 4.67973
234629 5.41240
234830 5.47465
235032 5.84270
235233 7.42282
235435 8.30555
235638 7.81151
235840 7.20938
236043 6.99504
236246 6.83033
236449 6.89954
236653 5.94819
236856 4.92481
237060 5.34812
237265 6.75390
237469 7.09542
237674 6.35870
237879 6.18001
238085 5.66732
238290 5.41629
238496 5.43056
238702 4.63682
238909 4.00258
239116 4.34156
239323 5.65623
239530 8.09038
239737 8.84815
239945 7.84520
240153 6.50549
240362 6.19292
240570 5.75367
240779 4.93529
240988 5.22904
241198 5.82188
241407 5.23514
241617 4.28253
241827 3.63187
242038 2.91046
242249 2.74495
242460 2.39570
242671 4.16951
242883 6.28509
243095 7.74773
243307 8.19192
243519 8.82436
243732 9.47563
243945 9.18682
244158 8.00467
244372 7.18579
244586 6.32253
244800 5.68635
245014 4.76871
245229 4.09110
245444 4.75983
245659 7.46359
245875 9.48124
246091 9.39976
246307 8.61179
246523 8.00829
246740 7.97256
246957 7.34275
247174 7.24770
247391 6.84846
247609 6.52529
247827 6.32565
248046 6.31977
248264 5.88338
248483 5.58806
248703 5.23863
248922 5.10300
249142 5.80645
249362 6.72641
249583 6.71721
249803 6.49281
250024 6.04743
250246 6.17620
250467 5.84058
250689 5.45413
250889 5.96380
251067 6.30300
251245 6.73641
251424 6.84849
251602 6.05616
251781 5.37703
251960 5.04824
252139 5.36926
252318 5.55066
252497 5.91323
252677 5.54458
252857 4.95918
253037 4.66780
253217 4.17543
253398 4.66786
253578 6.22546
253759 6.59379
253940 6.23011
254121 6.24315
254303 6.90182
254484 6.47140
254666 6.03806
254848 5.47206
255030 5.33909
255213 5.04094
255395 4.60741
255578 4.05279
255761 4.33378
255944 4.17004
256127 5.63518
256311 6.74777
256495 6.55289
256679 6.34132
256863 6.15516
257047 6.23426
257232 6.02919
257416 6.59550
257601 6.15110
257786 5.50474
257972 5.15800
258157 5.02028
258343 4.70543
258529 4.60450
258715 4.78091
258901 4.94397
259088 4.72538
259275 4.34856
259462 3.96066
259649 3.85790
259836 3.46492
260024 3.42805
260212 3.52568
260399 4.34351
260588 3.94481
260776 3.90738
260965 3.70742
261153 3.03253
261342 3.86087
261531 6.09487
261721 6.98598
261910 6.47179
262100 5.70873
262290 5.04768
262480 4.39610
262671 4.24912
262862 4.16689
263052 4.11098
263243 3.83446
263435 3.25012
263626 2.94675
263818 2.98753
264010 2.45743
264202 2.34486
264394 1.70945
264587 2.26094
264779 3.64036
264972 5.85652
265165 6.53584
265359 5.78736
265552 5.27084
265746 5.98723
265940 6.63561
266134 5.90876
266329 5.19814
266523 5.85467
266718 6.80871
266913 6.83953
267108 6.14194
267304 5.62680
267500 4.86367
267695 3.74537
267892 2.75379
268088 2.49412
268285 3.46515
268481 5.36300
268678 7.31257
268876 8.21716
269073 8.75396
269271 9.61046
269468 8.92744
269666 7.63187
269865 6.72123
270063 6.55215
270262 5.84104
270461 5.61046
270660 4.86584
270860 5.13336
271059 5.94236
271259 6.38175
271459 5.88481
271659 5.10511
271860 4.68920
272061 3.90317
272262 3.64077
272463 3.50872
272664 4.29463
272866 5.96127
273068 6.85676
273270 6.98563
273472 7.57579
273674 7.12014
273877 6.20272
274080 5.86237
274283 5.83709
274487 5.73653
274690 4.90370
274894 3.80015
275098 3.37066
275303 4.02983
275507 5.79821
275712 8.24778
275917 9.10589
276122 8.49580
276328 7.69287
276533 6.97129
276739 6.63407
276945 5.75674
277152 5.39531
277358 5.09156
277565 4.67091
277772 4.45658
277980 4.12008
278187 4.57219
278395 5.50066
278603 5.73313
278811 5.23060
279020 4.96862
279228 4.52035
279437 4.46020
279646 4.85818
279856 5.45818
280066 6.49992
280275 5.86498
280486 5.71030
280696 6.64537
280906 7.25873
281117 8.02764
281328 7.02181
281540 5.70964
281751 5.41646
281963 5.14679
282175 5.11425
282387 5.14501
282600 4.96084
282812 4.39119
283025 3.61456
283239 3.19697
283452 3.00241
283666 3.69591
283880 4.29931
284094 4.03095
284308 3.88750
284523 3.72239
284738 3.84232
284953 3.51166
285169 3.61462
285384 4.65053
285600 6.07513
285816 7.33381
286033 7.62124
286249 6.33575
286466 4.99658
286683 4.04018
286901 3.37086
287118 3.75145
287336 4.41573
287554 4.89713
287773 5.96007
287991 6.50987
288210 6.49770
288429 7.29092
288648 7.56296
288868 7.28081
289088 6.96073
289308 6.34921
289528 5.73280
289749 5.90042
289970 5.05068
290191 4.50123
290412 5.30220
290634 6.95582
290856 7.09565
291078 6.19484
291300 5.67428
291523 5.33679
291746 5.02823
291969 4.52131
292192 4.92668
292416 5.71792
292640 6.11222
292864 5.96470
293089 5.78357
293313 6.00472
293538 7.01687
293763 7.20204
293989 6.57997
294215 5.33703
294441 4.68842
294667 4.60101
294893 4.61968
295120 4.38523
295347 3.87628
295575 3.28984
295802 3.19249
296030 3.61284
296258 5.02102
296486 7.13848
296715 7.77021
296944 6.61064
297173 4.93021
297402 3.97516
297632 3.69082
297862 3.40984
298092 4.01316
298323 5.07000
298553 6.76447
298784 7.41364
299016 8.08811
299247 7.62833
299479 7.00992
299711 7.02694
299944 7.16615
300000 7.13722
300176 7.04628
300409 6.85104
300642 6.57786
300876 6.48645
301109 6.05448
301343 5.77627
301578 4.78306
301812 4.73021
302047 5.11075
302282 6.32446
302517 6.37738
302753 5.61045
302989 5.24481
303225 5.01037
303462 4.46266
303698 3.82314
303935 3.32318
304173 2.75016
304410 3.99240
304648 4.83910
304886 6.11402
305125 6.65085
305363 7.38180
305602 8.02363
305841 7.50699
306081 7.00023
306321 6.75599
306561 6.04578
306801 6.13841
307042 5.78896
307283 5.98042
307524 6.22879
307765 6.16566
308007 5.97412
308249 5.23657
308492 4.73625
308734 4.23205
308977 4.08410
309220 5.40003
309464 5.75573
309708 5.59434
309952 4.95925
310196 4.14578
310441 4.01696
310686 4.62968
310931 5.85941
311177 6.46632
311422 6.48278
311669 6.99653
311915 6.93635
312162 6.53436
312409 6.14855
312656 5.78779
312904 5.47404
313151 5.25718
313400 5.20458
313648 5.45358
313897 6.41693
314146 5.75566
314395 4.78518
314645 4.46243
314895 3.87234
315145 4.03503
315396 5.55973
315646 5.74560
315898 5.42017
316149 5.65810
316401 5.76561
316653 5.86349
316905 5.66058
317158 5.87757
317411 6.28284
317664 5.96084
317917 5.54433
318171 5.75364
318425 5.37290
318680 5.22070
318935 5.06655
319190 4.70538
319445 4.62425
319701 4.36968
319957 5.20598
320213 5.18641
320470 4.81658
320727 4.22575
320984 3.94155
321241 3.88874
321499 4.58766
321757 5.52002
322016 5.12155
322275 4.82991
322534 4.26699
322793 3.97282
323053 3.28643
323313 3.38169
323573 3.35072
323834 3.44608
324095 3.60557
324356 4.00713
324618 4.14806
324880 3.44847
325142 2.77167
325405 3.18936
325667 4.51507
325931 5.77191
326194 6.56301
326458 7.00740
326722 6.70258
326987 5.67008
327251 4.85823
327516 4.69410
327782 4.63641
328048 5.86351
328314 6.66598
328580 6.70703
328847 6.35340
329114 5.84405
329381 5.69271
329649 4.96332
329917 4.87446
330185 5.32556
330454 7.31322
330723 6.72198
330993 5.98927
331262 5.13106
331532 4.86899
331803 4.38147
332073 4.48150
332344 4.58197
332616 5.29622
332887 6.35876
333159 5.93408
333432 5.42517
333704 3.80792
333977 3.11062
334251 4.33673
334524 6.16940
334798 6.64615
335073 5.70943
335347 4.70667
335622 4.30311
335898 4.95987
336173 6.37736
336449 6.68652
336726 5.81814
337003 4.91719
337280 4.56180
337557 4.34541
337835 5.74165
338113 6.50543
338391 5.71698
338670 5.87922
338949 5.07593
339229 4.10916
339508 3.31951
339789 2.71374
340069 2.17416
340350 1.81400
340631 2.34386
340913 4.51922
341195 6.74209
341477 7.44263
341759 6.70602
342042 6.17452
342326 6.25516
342609 6.75977
342893 8.04622
343178 7.76727
343462 7.17504
343748 6.40204
344033 6.46298
344319 6.18228
344605 5.65425
344891 5.82190
345178 5.88115
345465 5.79579
345753 5.63324
346041 5.38754
346329 5.02593
346618 4.57598
346907 3.95606
347196 3.71773
347486 4.33779
347776 4.39916
348067 4.96186
348357 6.58753
348649 6.96882
348940 6.33161
349232 5.41790
349524 4.99500
349817 4.58330
350110 4.48187
350403 4.60723
350697 5.03624
350991 4.90271
351286 4.75702
351581 4.36709
351876 4.35103
352171 4.66302
352467 4.80246
352764 4.61717
353061 4.95345
353358 5.44374
353655 5.07675
353953 4.80030
354251 4.99519
354550 5.42586
354849 5.19897
355148 4.61984
355448 4.16497
355748 3.44841
356049 3.68909
356349 5.19198
356651 6.30264
356952 6.37048
357254 5.91801
357557 6.44612
357860 6.43516
358163 5.19460
358466 3.86860
358770 3.55856
359075 4.18762
359379 4.94294
359685 4.52780
359990 4.56754
360296 4.14716
360602 3.41422
360909 3.13214
361216 3.57993
361523 4.44258
361831 6.08823
362140 6.48832
362448 6.01603
362757 5.51465
363067 4.70962
363377 4.47359
363687 5.44368
363997 5.71404
364308 5.83472
364620 6.44085
364932 5.83089
365244 5.76820
365556 5.57455
365870 5.08693
366183 3.92679
366497 3.71866
366811 4.38100
367126 5.61216
367441 6.85597
367756 7.03578
368072 5.87143
368388 5.72816
368705 5.42789
369022 6.27093
369339 6.29673
369657 5.75667
369976 5.63875
370294 5.21840
370614 5.12463
370933 5.11738
371253 5.25711
371573 4.40862
371894 3.94073
372215 3.44240
372537 3.63877
372859 5.18408
373182 5.92128
373504 5.61497
373828 5.02499
374151 3.79960
374476 4.00194
374800 4.00741
375125 3.81506
375450 4.08467
375776 6.12853
376103 7.00820
376429 7.21640
376756 6.59055
377084 6.25315
377412 6.31551
377740 6.49737
378069 6.46303
378398 5.91808
378728 5.93334
379058 5.50552
379389 5.79107
379720 4.76228
380051 4.95101
380383 4.80767
380715 5.11517
381048 5.42673
381381 5.84255
381714 5.39419
382048 5.07455
382383 4.57607
382718 4.68229
383053 4.61680
383389 4.30624
383725 3.67704
384062 4.01032
384399 5.50650
384736 6.26497
385074 5.80909
385413 5.42042
385752 5.24734
386091 6.06980
386431 5.76522
386771 4.88397
387112 4.40169
387453 4.00436
387794 4.74233
388137 5.97480
388479 6.37078
388822 5.86759
389165 6.20347
389509 5.31361
389853 5.19123
390198 4.96539
390543 5.17422
390889 5.59793
391235 5.59162
391582 5.28336
391929 5.38823
392276 5.86527
392624 5.05814
392973 5.02205
393322 5.08119
393671 4.77349
394021 5.14165
394371 5.65370
394722 4.87634
395073 4.68746
395425 5.17294
395777 4.96657
396130 4.61074
396483 4.40278
396837 4.05580
397191 4.24320
397545 3.96913
397900 4.60729
398256 5.48884
398612 5.28958
398968 4.96030
399325 4.60417
399682 4.63225
400000 5.25973
400040 5.33866
400399 5.82976
400758 5.34744
401117 5.36406
401477 5.30481
401837 5.31476
402198 5.02982
402559 4.49600
402921 4.57265
403283 4.16399
403646 4.56723
404009 5.53834
404373 5.55476
404737 5.91215
405102 5.42562
405467 5.80522
405832 5.85094
406199 5.11743
406565 4.97834
406933 4.87935
407300 4.74823
407668 4.21806
408037 4.33177
408406 4.46104
408776 4.41563
409146 4.90621
409517 4.68532
409888 4.57943
410260 3.89411
410632 3.74044
411004 4.24222
411378 5.22175
411751 5.31264
412126 4.65023
412500 4.09176
412876 4.53147
413251 4.91073
413628 4.98283
414004 4.58049
414382 4.12487
414760 3.63879
415138 3.45338
415517 3.51997
415896 3.94967
416276 4.19252
416657 3.57193
417037 3.57263
417419 4.35169
417801 4.37336
418183 4.10410
418566 4.03491
418950 3.32674
419334 4.55276
419719 5.53783
420104 5.46016
420489 4.02129
420876 3.51059
421262 4.07738
421650 4.60793
422037 4.47839
422426 5.27386
422815 6.15919
423204 6.48053
423594 6.38876
423985 6.13737
424376 5.33686
424767 4.85452
425159 4.03141
425552 3.65077
425945 4.72445
426339 6.00752
426733 7.24694
427128 7.52854
427523 6.65715
427919 6.80484
428316 6.64849
428713 5.98548
429111 5.21397
429509 5.42096
429907 6.14234
430307 5.90746
430706 5.88734
431107 6.42369
431508 6.64844
431909 6.25075
432311 5.92701
432714 5.88659
433117 5.43156
433521 5.11795
433925 4.82278
434330 4.65747
434735 4.30386
435141 4.31366
435548 5.20155
435955 5.85799
436363 5.57578
436771 5.72983
437180 6.19579
437590 6.33525
438000 5.93000
438410 5.37309
438821 4.88272
439233 4.82056
439645 4.49534
440058 4.80703
440472 4.96724
440886 5.41012
441300 4.82057
441716 4.20358
442132 3.57611
442548 3.95728
442965 4.15770
443383 4.21520
443801 3.71614
444220 3.38928
444639 3.89809
445059 5.47024
445479 4.76737
445901 4.61941
446322 5.60426
446745 6.11345
447168 5.62082
447591 5.32164
448015 5.21429
448440 4.66787
448866 4.15442
449292 3.51124
449718 3.29765
450145 2.80197
450573 3.42597
451001 3.26227
451430 3.71626
451860 3.99975
452290 5.32510
452721 5.61135
453153 5.05347
453585 4.92289
454018 4.32882
454451 4.53419
454885 5.59275
455319 5.85911
455755 5.11572
456190 4.64069
456627 5.44228
457064 5.49188
457502 4.40147
457940 3.52554
458379 3.55974
458818 4.54372
459259 4.77699
459700 4.17965
460141 4.86968
460583 6.06748
461026 5.64748
461469 4.67056
461913 4.64756
462358 5.04468
462803 4.89958
463249 4.96539
463696 5.09660
464143 4.62970
464591 4.29585
465040 4.48730
465489 3.71464
465939 3.03042
466389 3.58698
466841 3.95062
467292 4.24848
467745 4.99735
468198 5.45333
468652 4.96012
469106 3.45549
469561 3.84423
470017 4.57170
470474 5.16771
470931 4.84739
471388 4.18708
471847 4.71036
472306 5.28441
472766 5.86975
473226 5.61883
473687 5.21296
474149 4.47166
474612 4.34781
475075 3.96910
475539 3.94285
476003 3.48084
476468 3.48105
476934 2.99114
477401 2.87069
477868 3.01973
478336 3.11332
478805 4.05673
479274 5.23965
479744 5.81283
480215 5.17754
480686 3.97924
481158 2.89082
481631 2.86828
482104 3.33680
482579 4.87708
483054 5.87729
483529 5.66920
484005 5.55091
484482 5.59763
484960 5.67194
485438 5.35826
485918 5.63984
486397 5.36579
486878 4.95190
487359 5.46224
487841 6.16319
488324 5.71989
488807 5.46653
489291 5.57794
489776 4.80717
490262 4.24608
490748 3.62996
491235 2.99689
491723 3.42852
492211 3.67108
492700 3.87645
493190 4.43891
493681 4.58117
494172 4.90768
494664 4.69452
495157 3.95026
495651 4.75840
496145 5.70055
496640 5.27215
497136 4.94383
497632 4.53731
498130 4.15762
498628 3.54888
499126 4.44913
499626 5.11950
500000 5.24025
500126 5.28093
500627 5.42309
501129 5.11699
501632 4.96086
502135 4.57178
502639 4.42049
503144 4.72046
503649 5.31695
504156 5.20865
504663 4.56594
505171 5.05232
505679 4.73259
506189 4.22004
506699 4.22463
507210 4.35666
507721 4.55739
508234 3.57963
508747 3.52170
509261 4.33450
509776 4.34462
510292 3.07583
510808 2.94742
511325 4.04251
511843 4.84847
512362 5.05011
512882 4.18619
513402 3.62041
513923 3.94022
514445 4.92271
514968 5.54130
515491 5.48573
516015 5.30645
516541 4.69589
517066 4.16794
517593 3.72471
518121 3.97872
518649 4.33941
519178 5.35031
519708 5.90966
520239 5.53345
520770 4.55769
521303 4.53995
521836 4.45362
522370 4.50792
522905 4.19759
523440 3.40410
523977 3.46434
524514 3.80684
525052 3.83419
525591 3.60053
526131 3.67267
526672 4.50062
527213 4.80097
527756 4.02488
528299 3.62369
528843 3.86872
529387 4.65068
529933 5.16304
530480 5.29642
531027 4.62758
531575 4.49211
532124 4.54435
532674 4.81625
533225 4.52700
533776 4.57365
534329 3.97637
534882 4.59330
535436 4.69748
535991 4.93176
536547 5.11612
537104 4.74562
537662 5.02345
538220 5.49391
538780 5.49365
539340 5.10002
539901 4.44273
540463 3.90513
541026 4.14238
541590 4.12823
542154 4.13168
542720 4.26306
543286 4.63461
543854 4.68878
544422 4.53510
544991 5.05183
545561 5.37271
546132 4.97541
546704 4.52846
547276 4.04871
547850 4.07262
548424 4.41753
549000 4.09636
549576 4.10181
550153 4.35784
550731 4.01506
551310 3.08991
551890 2.56378
552471 2.22154
553053 3.52808
553635 5.27763
554219 5.88660
554803 5.82444
555389 5.07876
555975 4.01482
556563 3.29879
557151 3.59126
557740 4.63802
558330 5.52581
558921 5.10700
559513 4.08063
560106 3.96676
560700 4.14633
561295 4.42595
561890 4.55337
562487 3.94154
563085 3.70018
563683 3.93103
564283 3.47323
564883 2.89831
565485 3.80819
566087 3.37620
566691 3.18127
567295 3.33813
567901 4.56572
568507 5.67599
569114 5.53887
569722 5.12993
570332 4.38057
570942 4.36343
571553 4.33774
572165 3.95592
572778 4.63991
573392 4.72241
574008 4.32733
574624 4.63451
575241 4.66760
575859 4.15207
576478 4.23984
577098 3.96994
577719 3.59083
578341 3.98214
578965 4.09072
579589 4.20696
580214 4.54510
580840 4.94857
581467 4.90458
582095 4.02186
582724 4.10509
583355 4.38271
583986 4.57001
584618 4.67508
585251 4.24366
585886 4.35554
586521 4.61424
587158 5.32185
587795 5.15323
588433 4.46732
589073 4.21027
589714 3.78371
590355 4.53829
590998 3.92104
591641 4.27393
592286 4.88217
592932 4.46452
593579 3.96643
594227 4.44765
594876 5.13347
595526 5.57116
596177 4.47952
596829 4.12180
597482 3.98777
598137 4.38577
598792 4.56656
599449 4.46833
600000 3.93697
600106 3.83475
600765 3.83455
601425 4.28441
602085 4.77295
602747 5.07735
603410 4.65315
604074 4.56348
604739 4.17475
605406 3.74458
606073 2.96967
606742 3.67949
607411 4.38544
608082 4.00111
608754 3.42268
609427 3.79630
610101 3.35321
610776 3.76017
611452 5.00811
612130 4.68952
612808 4.36366
613488 4.62773
614169 4.87518
614851 4.80557
615534 4.47674
616218 4.42429
616903 4.15598
617590 3.98238
618277 4.61926
618966 4.92036
619656 4.70347
620347 4.51568
621040 4.42162
621733 4.05275
622428 3.76089
623123 3.83367
623820 3.85653
624518 3.76087
625218 3.39707
625918 2.86937
626620 4.15618
627323 4.49862
628026 4.70804
628732 4.77335
629438 4.59432
630146 4.56235
630854 4.45369
631564 4.49396
632275 4.68148
632988 4.14337
633701 3.88750
634416 3.03349
635132 3.12913
635849 3.91721
636568 4.54358
637287 4.13854
638008 4.08323
638730 3.79848
639453 3.83717
640178 4.45048
640904 5.13170
641631 4.45855
642359 4.28533
643088 4.32232
643819 4.38451
644551 4.04463
645284 3.60218
646018 3.04069
646754 3.07711
647491 3.54142
648229 4.35037
648969 5.00774
649710 5.03828
650452 4.17377
651195 4.20004
651940 4.77039
652685 5.53400
653433 5.06510
654181 4.97953
654931 4.46027
655682 4.19728
656434 4.67862
657188 4.30499
657942 3.69505
658699 3.05055
659456 3.29414
660215 3.94946
660975 4.27772
661736 4.35645
662499 4.44862
663263 4.73366
664029 4.30691
664795 4.21817
665563 3.72425
666333 2.93208
667103 2.55075
667875 2.91037
668649 4.35394
669424 4.65292
670200 4.65525
670977 4.63120
671756 4.86818
672536 4.76776
673317 4.72927
674100 3.95210
674884 3.78965
675670 4.05078
676457 4.43313
677245 4.45649
678035 4.00989
678826 3.78627
679619 4.03509
680413 4.81696
681208 4.43182
682005 3.76602
682803 3.85382
683602 4.15468
684403 3.23542
685205 3.49820
686009 4.05538
686814 3.67464
687621 3.74461
688429 4.20181
689238 4.10309
690049 4.16956
690861 4.30141
691675 4.27735
692592 4.00992
693613 3.27193
694636 4.00859
695662 3.61746
696690 3.29851
697720 3.61274
698753 3.75862
699788 4.36918
700000 4.29793
700825 4.02067
701864 3.29212
702906 4.29906
703950 4.56192
704996 4.94802
706045 4.50456
707096 4.06244
708150 3.86270
709205 3.95799
710263 3.20205
711324 4.17994
712387 4.32780
713452 4.42713
714520 4.86059
715590 4.52663
716662 3.83306
717737 4.53584
718814 4.59824
719894 4.56184
720976 4.62526
722061 3.93925
723148 4.74263
724238 4.44777
725329 3.48478
726424 4.00125
727521 4.62619
728620 4.61284
729722 4.26275
730827 4.60194
731934 4.37871
733043 4.05694
734155 3.56575
735270 3.99976
736386 3.56663
737506 3.76724
738628 3.47560
739753 3.22910
740880 3.58627
742010 4.77299
743143 5.10466
744278 4.09726
745415 3.65330
746556 4.31399
747698 4.72759
748844 4.10416
749992 3.62861
751143 3.99208
752296 4.24846
753452 4.53205
754611 4.91604
755773 4.58521
756937 3.57422
758104 3.11410
759273 3.91440
760445 4.17112
761620 3.53484
762798 3.72308
763978 3.57449
765162 3.73956
766348 3.75202
767536 3.59833
768728 3.11798
769922 3.17618
771119 3.10112
772319 3.50625
773521 4.07559
774727 4.14097
775935 3.65743
777146 3.68731
778360 3.33336
779577 4.38106
780796 4.93080
782141 4.45642
782980 4.37319
783612 4.31049
785088 3.96599
786567 3.51336
788051 4.12806
789538 4.74486
791030 4.32047
792527 4.67451
794027 4.43825
795532 3.70207
797041 3.42183
798555 3.36000
800000 3.36893
800072 3.36937
801594 4.05775
803121 4.21657
804651 4.19199
806187 3.66828
807726 3.72616
809270 4.33181
810818 4.48323
812371 4.00306
813928 3.84794
815490 4.05883
817057 4.08106
818627 3.80943
820203 3.68182
821783 4.37442
823367 4.17685
824956 4.30184
826550 4.38698
828148 3.86770
829751 3.48286
831359 3.94434
832971 3.98463
834588 3.98760
836209 4.42916
837836 3.83693
839467 3.83691
841103 3.82956
842744 4.19538
844389 3.64265
846039 3.09093
847695 2.79468
849355 3.30288
851020 3.48281
852690 3.63723
854364 3.72298
856044 3.50206
857729 3.94937
859418 3.48689
861113 3.97820
862813 4.06554
864517 4.23149
866227 3.78496
867942 3.90716
869662 3.50013
871387 3.01968
873117 3.58470
874853 3.39666
876593 4.27612
878339 4.48769
880090 3.65761
881846 3.46647
883608 3.33846
885374 3.69898
887146 3.70352
888924 3.17448
890707 3.21756
892495 3.44461
894288 3.11600
896087 3.37601
897891 3.33285
899701 3.35842
900000 3.39415
901517 3.57544
903337 3.48901
905164 3.71675
906996 3.84071
908833 3.79932
910676 3.86546
912525 3.37183
914379 3.88022
916239 3.99982
918105 4.15038
919976 4.17725
921853 4.06811
923736 3.95001
925625 3.87675
927519 3.62739
929419 3.26303
931325 3.59272
933237 3.81851
935155 3.51299
937079 4.25501
939009 4.01399
940944 4.06749
942886 4.42490
944834 3.69536
946787 3.61649
948747 3.87111
950713 3.16940
952685 3.51660
954663 4.14153
956648 4.30754
958638 4.65328
960635 4.84342
962638 4.17263
964647 4.06070
966663 3.94521
968685 3.82524
970713 3.46451
972748 3.99951
974789 3.72483
976836 3.75226
978890 3.90513
980950 4.08962
983017 3.50639
985091 4.01726
987171 4.64368
989258 4.66642
991351 4.34597
993451 3.82707
995557 3.69814
997671 4.16825
999791 3.97107
1.00000E+06 3.91904
1.00192E+06 3.44109
1.00405E+06 3.97968
1.00619E+06 4.24762
1.00834E+06 3.59422
1.01049E+06 4.10739
1.01266E+06 4.65121
1.01482E+06 4.17367
1.01700E+06 3.86153
1.01918E+06 3.89537
1.02137E+06 4.40651
1.02357E+06 3.64062
1.02577E+06 3.50316
1.02798E+06 3.17078
1.03020E+06 3.76928
1.03242E+06 3.92382
1.03465E+06 3.44866
1.03689E+06 3.60041
1.03914E+06 2.88083
1.04139E+06 3.56596
1.04365E+06 3.49251
1.04592E+06 3.40648
1.04820E+06 3.52594
1.05048E+06 2.95509
1.05277E+06 2.90001
1.05507E+06 3.30841
1.05738E+06 3.62811
1.05969E+06 4.08396
1.06201E+06 3.97907
1.06434E+06 3.90867
1.06668E+06 3.90713
1.06902E+06 3.00985
1.07137E+06 2.97883
1.07373E+06 3.04103
1.07610E+06 3.37495
1.07847E+06 3.72484
1.08086E+06 3.67892
1.08325E+06 3.67622
1.08565E+06 3.41872
1.08805E+06 3.50448
1.09047E+06 3.40245
1.09289E+06 3.01104
1.09532E+06 2.85672
1.09776E+06 3.62480
1.10021E+06 3.56213
1.10267E+06 3.46424
1.10513E+06 3.15082
1.10760E+06 3.94488
1.11008E+06 3.66986
1.11257E+06 3.34406
1.11507E+06 3.75338
1.11757E+06 3.65236
1.12009E+06 3.78774
1.12200E+06 3.45000
1.12402E+06 3.09420
1.12500E+06 3.02460
1.12961E+06 2.69670
1.13000E+06 2.72060
1.13220E+06 2.85500
1.13243E+06 2.86930
1.13330E+06 2.97580
1.13334E+06 2.98040
1.13500E+06 3.18385
1.13525E+06 3.21434
1.14000E+06 3.07234
1.14500E+06 3.11005
1.14809E+06 3.13335
1.15000E+06 3.28675
1.15242E+06 3.48085
1.15500E+06 3.40125
1.16000E+06 3.24695
1.16115E+06 3.21145
1.16500E+06 3.00816
1.17000E+06 2.74416
1.17500E+06 2.97266
1.17891E+06 3.15137
1.18000E+06 3.23767
1.18191E+06 3.38856
1.18500E+06 3.13947
1.18643E+06 3.02417
1.19000E+06 3.16437
1.19403E+06 3.41127
1.19500E+06 3.40427
1.20000E+06 3.36818
1.20324E+06 3.34428
1.20788E+06 2.94278
1.22000E+06 3.15878
1.22356E+06 3.22169
1.22991E+06 3.22139
1.23471E+06 3.29519
1.24000E+06 3.10409
1.24602E+06 3.03369
1.25000E+06 3.26718
1.25092E+06 3.32120
1.25914E+06 3.17070
1.26000E+06 3.18940
1.26411E+06 3.27910
1.27079E+06 3.13690
1.27415E+06 3.24350
1.28000E+06 2.90910
1.28090E+06 2.85770
1.28942E+06 3.24180
1.30000E+06 3.13230
1.30847E+06 3.04480
1.31198E+06 2.94920
1.31727E+06 3.15490
1.32000E+06 3.12420
1.32437E+06 3.07460
1.32794E+06 2.94610
1.33333E+06 3.00121
1.34000E+06 3.02340
1.34710E+06 3.04660
1.34830E+06 3.05210
1.35000E+06 3.05980
1.36262E+06 3.15780
1.37000E+06 2.95000
1.37009E+06 2.94740
1.37500E+06 3.16173
1.37504E+06 3.16330
1.37762E+06 3.27610
1.38000E+06 3.22160
1.38522E+06 3.10190
1.39673E+06 3.15650
1.40000E+06 3.06190
1.40449E+06 2.93080
1.41822E+06 2.96800
1.42218E+06 3.18250
1.43215E+06 2.94190
1.43450E+06 2.93940
1.43460E+06 2.93950
1.44223E+06 2.94240
1.45000E+06 2.74310
1.45037E+06 2.73330
1.45652E+06 2.95800
1.46271E+06 3.25070
1.48362E+06 2.97050
1.49211E+06 3.07260
1.49853E+06 3.00420
1.50000E+06 3.03550
1.50480E+06 3.13260
1.50500E+06 3.13680
1.50502E+06 3.13729
1.50715E+06 3.18199
1.51367E+06 2.93988
1.52242E+06 3.00249
1.52682E+06 3.11629
1.54688E+06 3.07888
1.55000E+06 3.02869
1.55366E+06 2.96758
1.56734E+06 3.08829
1.57160E+06 2.97309
1.57180E+06 2.96779
1.57425E+06 2.90399
1.58121E+06 2.96519
1.58587E+06 2.81389
1.59762E+06 2.93809
1.60000E+06 2.93679
1.61189E+06 2.91759
1.62393E+06 3.09349
1.63365E+06 3.02079
1.64101E+06 2.85429
1.64800E+06 2.99390
1.64820E+06 2.99796
1.64822E+06 2.99825
1.65000E+06 3.03459
1.65089E+06 3.05259
1.65836E+06 2.97019
1.69907E+06 2.91999
1.70000E+06 2.94950
1.70688E+06 3.16469
1.71211E+06 3.04270
1.71736E+06 2.83500
1.74220E+06 3.04219
1.74400E+06 3.05720
1.75000E+06 3.15030
1.75160E+06 3.13920
1.75180E+06 3.13780
1.77403E+06 2.98730
1.78235E+06 3.09360
1.79635E+06 2.98860
1.80000E+06 2.99030
1.82198E+06 2.99670
1.83064E+06 2.94960
1.83645E+06 3.06990
1.84816E+06 2.91050
1.85000E+06 2.91790
1.89002E+06 3.07440
1.89080E+06 3.06990
1.89470E+06 3.04740
1.90000E+06 3.02120
1.92080E+06 3.13820
1.93332E+06 3.05650
1.94279E+06 3.10160
1.95000E+06 3.08260
1.95233E+06 3.07550
2.00000E+06 3.07120
2.04320E+06 3.06180
2.09510E+06 3.05060
2.10000E+06 3.04950
2.11440E+06 3.05140
2.12500E+06 3.05270
2.12650E+06 3.05290
2.12653E+06 3.05290
2.14070E+06 3.05473
2.14075E+06 3.05471
2.20000E+06 3.06238
2.22000E+06 3.06779
2.24340E+06 3.07380
2.24740E+06 3.07482
2.25000E+06 3.07548
2.30000E+06 3.08820
2.31340E+06 3.09137
2.36320E+06 3.10313
2.37450E+06 3.10580
2.40000E+06 3.11180
2.44360E+06 3.12280
2.44440E+06 3.12300
2.50000E+06 3.13700
2.53700E+06 3.14630
2.54620E+06 3.14860
2.57240E+06 3.15515
2.57340E+06 3.15540
2.57660E+06 3.15620
2.60000E+06 3.16210
2.63430E+06 3.16581
2.70000E+06 3.17291
2.73920E+06 3.18980
2.75000E+06 3.19441
2.76050E+06 3.19890
2.80000E+06 3.21590
2.82460E+06 3.22450
2.85100E+06 3.23380
2.90000E+06 3.25100
2.90380E+06 3.25230
2.93530E+06 3.26270
2.93630E+06 3.26300
3.00000E+06 3.28410
3.10000E+06 3.31220
3.20000E+06 3.34850
3.30000E+06 3.37260
3.40000E+06 3.39910
3.50000E+06 3.42600
3.60000E+06 3.46100
3.70000E+06 3.49650
3.75000E+06 3.51649
3.80000E+06 3.53650
3.95980E+06 3.59300
4.00000E+06 3.60730
4.04930E+06 3.62470
4.16090E+06 3.64540
4.28380E+06 3.68150
4.41180E+06 3.69260
4.50000E+06 3.71030
4.54170E+06 3.71861
4.67820E+06 3.74080
4.82100E+06 3.76491
4.97140E+06 3.78830
5.00000E+06 3.79031
5.12800E+06 3.79911
5.28830E+06 3.81410
5.30920E+06 3.81500
5.30922E+06 3.81500
5.46940E+06 3.82190
5.50000E+06 3.82291
5.64700E+06 3.82751
5.75000E+06 3.82712
5.83690E+06 3.82681
5.86960E+06 3.82561
6.00000E+06 3.82090
6.03670E+06 3.81950
6.22010E+06 3.81960
6.23510E+06 3.81959
6.47980E+06 3.80950
6.50000E+06 3.80780
6.70520E+06 3.79000
6.89550E+06 3.77380
6.95430E+06 3.76880
7.00000E+06 3.76500
7.19980E+06 3.74820
7.49150E+06 3.71679
7.50000E+06 3.71610
7.56570E+06 3.71045
7.56574E+06 3.71045
7.75000E+06 3.69460
7.78190E+06 3.69190
8.00000E+06 3.66310
8.10810E+06 3.64889
8.43020E+06 3.62749
8.50000E+06 3.62090
8.75590E+06 3.59666
8.75595E+06 3.59666
8.77450E+06 3.59490
9.00000E+06 3.56211
9.14190E+06 3.54140
9.50000E+06 3.50580
9.54710E+06 3.50110
9.69420E+06 3.49200
9.97240E+06 3.47470
1.00000E+07 3.47010
1.00630E+07 3.45950
1.00640E+07 3.45937
1.02500E+07 3.44331
1.04160E+07 3.42899
1.05000E+07 3.41900
1.09020E+07 3.37130
1.10000E+07 3.36030
1.10280E+07 3.35720
1.13000E+07 3.32660
1.14090E+07 3.31600
1.15000E+07 3.30120
1.17000E+07 3.26760
1.19000E+07 3.23389
1.19750E+07 3.22220
1.20000E+07 3.22180
1.22500E+07 3.19090
1.24620E+07 3.16201
1.25000E+07 3.15690
1.25800E+07 3.14601
1.27500E+07 3.12750
1.30000E+07 3.10040
1.32290E+07 3.07550
1.32500E+07 3.07220
1.35000E+07 3.03240
1.37500E+07 2.99260
1.39280E+07 2.96440
1.40000E+07 2.95880
1.41000E+07 2.95090
1.42500E+07 2.93921
1.45000E+07 2.91980
1.46000E+07 2.91201
1.46720E+07 2.90640
1.47500E+07 2.89710
1.48000E+07 2.89121
1.50000E+07 2.86741
1.52500E+07 2.83781
1.54840E+07 2.81010
1.55000E+07 2.80830
1.57500E+07 2.78099
1.60000E+07 2.75350
1.62500E+07 2.72619
1.63950E+07 2.71030
1.65000E+07 2.70330
1.67500E+07 2.68651
1.70000E+07 2.66970
1.72500E+07 2.65291
1.73590E+07 2.64560
1.75000E+07 2.63940
1.77500E+07 2.62830
1.80000E+07 2.61720
1.82500E+07 2.60620
1.84140E+07 2.59890
1.85000E+07 2.59290
1.87500E+07 2.57571
1.90000E+07 2.55840
1.92000E+07 2.54450
1.92500E+07 2.54111
1.94000E+07 2.53070
1.95000E+07 2.52380
1.95790E+07 2.51830
1.96000E+07 2.51650
1.97500E+07 2.50350
2.00000E+07 2.48200
2.00000E+07 2.52400
2.10000E+07 2.49850
2.20000E+07 2.47429
2.22264E+07 2.46894
2.28344E+07 2.45470
2.30000E+07 2.45096
2.30433E+07 2.45002
2.36374E+07 2.44109
2.39703E+07 2.43889
2.40000E+07 2.43878
2.42565E+07 2.43813
2.50000E+07 2.43878
2.60000E+07 2.44284
2.64687E+07 2.44618
2.69772E+07 2.45053
2.70000E+07 2.45074
2.80000E+07 2.46110
2.84437E+07 2.46633
2.90000E+07 2.47343
2.91247E+07 2.47510
3.00000E+07 2.48748
3.05998E+07 2.49649
3.10000E+07 2.50274
3.10209E+07 2.50307
3.16536E+07 2.51356
3.20000E+07 2.51968
3.21808E+07 2.52299
3.25000E+07 2.52907
3.30000E+07 2.53917
3.30352E+07 2.53990
3.40000E+07 2.56039
3.44104E+07 2.56900
3.45861E+07 2.57261
3.50000E+07 2.58081
3.60000E+07 2.59970
3.70000E+07 2.61784
3.80000E+07 2.63515
3.81492E+07 2.63765
3.86520E+07 2.64595
3.90000E+07 2.65156
3.90784E+07 2.65281
4.00000E+07 2.66704
4.04698E+07 2.67379
4.08001E+07 2.67822
4.10000E+07 2.68078
4.14064E+07 2.68572
4.20000E+07 2.69240
4.30000E+07 2.70246
4.32922E+07 2.70517
4.40000E+07 2.71144
4.50000E+07 2.71979
4.59759E+07 2.72705
4.60000E+07 2.72722
4.70000E+07 2.73334
4.80000E+07 2.73840
4.85326E+07 2.74074
4.90000E+07 2.74261
4.97612E+07 2.74537
5.00000E+07 2.74617
5.00405E+07 2.74630
5.03015E+07 2.74712
5.04829E+07 2.74766
5.10000E+07 2.74897
5.20000E+07 2.75038
5.21723E+07 2.75044
5.30000E+07 2.74985
5.40000E+07 2.74689
5.48452E+07 2.74219
5.50000E+07 2.74109
5.51156E+07 2.74023
5.60000E+07 2.73304
5.70000E+07 2.72383
5.80000E+07 2.71379
5.80301E+07 2.71348
5.90000E+07 2.70323
5.97806E+07 2.69479
6.00000E+07 2.69240
6.02587E+07 2.68959
6.07577E+07 2.68416
6.10000E+07 2.68153
6.16147E+07 2.67485
6.20000E+07 2.67065
6.27254E+07 2.66273
6.30000E+07 2.65972
6.40000E+07 2.64872
6.50000E+07 2.63762
6.50854E+07 2.63667
6.60000E+07 2.62619
6.70000E+07 2.61414
6.75245E+07 2.60756
6.80000E+07 2.60142
6.90000E+07 2.58796
7.00000E+07 2.57371
7.01634E+07 2.57130
7.10000E+07 2.55837
7.20000E+07 2.54190
7.30000E+07 2.52459
7.34245E+07 2.51705
7.40000E+07 2.50670
7.50000E+07 2.48849
7.52011E+07 2.48482
7.60000E+07 2.47034
7.70000E+07 2.45231
7.79315E+07 2.43536
7.80000E+07 2.43410
7.90000E+07 2.41547
7.93933E+07 2.40797
8.00000E+07 2.39618
8.10000E+07 2.37652
8.20000E+07 2.35701
8.30000E+07 2.33780
8.40000E+07 2.31903
8.50000E+07 2.30082
8.60000E+07 2.28323
8.60506E+07 2.28236
8.70000E+07 2.26615
8.80000E+07 2.24943
8.90000E+07 2.23296
9.00000E+07 2.21661
9.10000E+07 2.20020
9.20000E+07 2.18350
9.30000E+07 2.16639
9.40000E+07 2.14871
9.50000E+07 2.13038
9.60000E+07 2.11174
9.70000E+07 2.09326
9.80000E+07 2.07496
9.90000E+07 2.05689
1.00000E+08 2.03908
1.02000E+08 2.00440
1.04000E+08 1.97096
1.06000E+08 1.93861
1.08000E+08 1.90725
1.10000E+08 1.87677
1.12000E+08 1.84675
1.14000E+08 1.81715
1.16000E+08 1.78839
1.18000E+08 1.76082
1.20000E+08 1.73474
1.22000E+08 1.70992
1.24000E+08 1.68592
1.26000E+08 1.66265
1.28000E+08 1.64006
1.30000E+08 1.61808
1.32000E+08 1.59666
1.34000E+08 1.57579
1.36000E+08 1.55550
1.38000E+08 1.53577
1.40000E+08 1.51663
1.42000E+08 1.49828
1.44000E+08 1.48082
1.46000E+08 1.46411
1.48000E+08 1.44802
1.50000E+08 1.43243