Zn-70(n,tot) ENDF/B-VII.1
Energy(eV) XS(b)
1.00000E-05 8.91819
1.25000E-05 8.43121
1.50000E-05 8.07173
2.00000E-05 7.56714
2.75000E-05 7.08702
3.50000E-05 6.77105
4.25000E-05 6.54294
5.00000E-05 6.36831
6.25000E-05 6.15053
7.50000E-05 5.98976
0.000100000 5.76410
0.000125000 5.61010
0.000150000 5.49643
0.000200000 5.33686
0.000275000 5.18504
0.000350000 5.08512
0.000425000 5.01298
0.000500000 4.95776
0.000625000 4.88889
0.000750000 4.83805
0.00100000 4.76669
0.00125000 4.71799
0.00150000 4.68204
0.00200000 4.63159
0.00275000 4.58357
0.00350000 4.55198
0.00425000 4.52916
0.00500000 4.51170
0.00625000 4.48992
0.00750000 4.47385
0.0100000 4.45128
0.0125000 4.43588
0.0150000 4.42451
0.0200000 4.40855
0.0253000 4.39711
0.0314750 4.38762
0.0376500 4.38057
0.0500000 4.37062
0.0625000 4.36373
0.0750000 4.35864
0.100000 4.35149
0.125000 4.34661
0.150000 4.34301
0.200000 4.33794
0.275000 4.33310
0.350000 4.32991
0.500000 4.32582
0.750000 4.32192
1.00000 4.31955
1.50000 4.31665
2.00000 4.31484
2.75000 4.31299
3.50000 4.31166
5.00000 4.30973
7.50000 4.30744
10.0000 4.30563
15.0000 4.30261
20.0000 4.29995
27.5000 4.29625
35.0000 4.29273
50.0000 4.28600
75.0000 4.27526
100.000 4.26491
150.000 4.24503
200.000 4.22607
275.000 4.19914
350.000 4.17380
500.000 4.12728
750.000 4.05987
1000.00 4.00234
1500.00 3.90837
2000.00 3.83360
2750.00 3.74379
3500.00 3.67041
5000.00 3.54878
6250.00 3.45780
7500.00 3.36614
8750.00 3.26471
9375.00 3.20600
9687.50 3.17328
10000.0 3.13740
10199.9 3.11234
10399.7 3.08534
10599.6 3.05757
10649.6 3.05208
10699.5 3.05117
10724.5 3.05722
10737.0 3.06535
10749.5 3.08195
10762.0 3.11981
10768.2 3.15853
10774.5 3.22966
10777.6 3.28995
10780.7 3.38173
10783.8 3.53176
10787.0 3.80176
10788.5 4.02780
10790.1 4.36640
10791.6 4.91056
10793.2 5.86724
10794.0 6.64390
10794.8 7.78719
10795.5 9.56860
10796.3 12.5641
10797.1 18.1713
10797.5 22.9997
10797.9 30.4965
10798.3 42.9641
10798.7 65.6249
10798.9 84.8654
10799.1 111.582
10799.3 153.703
10799.4 213.494
10799.7 339.776
10800.0 423.918
10800.3 339.612
10800.6 213.306
10800.9 124.201
10801.2 79.2228
10801.5 54.4224
10801.8 39.7205
10802.1 30.4146
10802.4 24.1960
10803.1 16.7076
10803.7 12.5653
10804.3 10.0451
10805.5 7.27181
10806.8 5.86334
10808.0 5.05260
10809.3 4.54397
10810.5 4.20417
10813.0 3.79270
10815.5 3.56255
10817.9 3.42092
10820.4 3.32758
10825.4 3.21594
10830.3 3.15408
10840.3 3.09100
10850.2 3.06053
10860.1 3.04306
10879.9 3.02370
10919.6 3.00476
10959.3 2.99277
11118.1 2.95342
11197.5 2.93286
11276.8 2.91056
11435.6 2.85847
11594.4 2.79113
11673.7 2.74853
11753.1 2.69695
11832.5 2.63255
11872.2 2.59371
11911.9 2.54909
11951.6 2.49747
11991.3 2.43858
12011.1 2.40840
12030.9 2.38610
12040.9 2.38939
12045.8 2.40305
12050.8 2.43690
12055.7 2.52141
12058.2 2.61042
12060.7 2.77555
12061.9 2.91500
12063.2 3.12700
12064.4 3.47072
12065.7 4.08068
12066.3 4.57975
12066.9 5.31949
12067.5 6.48253
12068.1 8.46293
12068.8 12.2416
12069.1 15.5618
12069.4 20.8264
12069.7 29.8502
12070.0 47.0224
12070.2 62.4330
12070.3 84.5229
12070.5 121.898
12070.6 177.647
12070.8 280.582
12071.0 348.203
12071.2 274.507
12071.4 172.777
12071.5 124.538
12071.7 91.9134
12071.8 69.8578
12071.9 54.6245
12072.2 35.9295
12072.4 25.5304
12072.7 19.2310
12073.0 15.1525
12073.5 10.3926
12074.0 7.83774
12074.5 6.31386
12075.0 5.33380
12075.6 4.66690
12076.6 3.84373
12077.6 3.37412
12078.7 3.08082
12079.7 2.88513
12081.8 2.64736
12083.9 2.51263
12088.0 2.37014
12092.2 2.29591
12096.3 2.24898
12104.7 2.18740
12137.9 2.02221
12154.5 1.93669
12171.2 1.83961
12204.4 1.59204
12221.0 1.42957
12237.7 1.23003
12254.3 0.981158
12270.9 0.670782
12279.2 0.491995
12287.5 0.305988
12295.8 0.138068
12300.0 0.0812049
12304.2 0.0669775
12308.3 0.133227
12310.4 0.217111
12312.5 0.352805
12314.6 0.561262
12316.6 0.873236
12318.7 1.33486
12320.8 2.01313
12322.9 3.02640
12324.9 4.55563
12327.0 6.91334
12329.1 10.6327
12331.2 16.7806
12333.3 27.3635
12335.3 46.4307
12337.4 81.3115
12339.7 147.409
12342.0 207.469
12344.3 186.726
12346.6 130.704
12349.3 83.9774
12352.0 57.9431
12354.7 42.9098
12357.4 33.5984
12360.1 27.4262
12362.8 23.1417
12368.2 17.6709
12373.6 14.3910
12379.0 12.2468
12389.8 9.64584
12400.7 8.14980
12411.5 7.18754
12422.3 6.52023
12433.1 6.03184
12454.7 5.36685
12476.3 4.93637
12497.9 4.63533
12519.6 4.41304
12562.8 4.10654
12606.0 3.90481
12649.3 3.76164
12692.5 3.65467
12779.0 3.50656
12822.2 3.45531
12865.5 3.41783
12887.1 3.40558
12908.7 3.39989
12930.3 3.40502
12952.0 3.43135
12962.8 3.46012
12973.6 3.50887
12984.4 3.59436
12995.2 3.75583
13000.6 3.89359
13006.0 4.10373
13011.4 4.44677
13016.8 5.05747
13019.5 5.56112
13022.2 6.30767
13024.9 7.48573
13027.6 9.50130
13030.3 13.3734
13031.7 16.7993
13033.0 22.2701
13034.4 31.7435
13035.7 50.0599
13036.4 66.2847
13037.1 91.1582
13037.8 132.078
13038.4 198.159
13039.2 314.695
13040.0 392.188
13040.8 313.123
13041.6 196.972
13042.2 132.904
13042.9 93.5848
13043.5 68.7554
13044.2 52.5092
13045.5 33.5540
13046.7 23.6711
13048.0 17.8563
13049.3 14.2166
13051.9 10.0527
13054.4 7.86880
13057.0 6.58510
13059.6 5.76760
13062.2 5.21516
13067.3 4.53772
13072.4 4.15340
13077.6 3.91404
13082.7 3.75476
13093.0 3.56072
13103.3 3.45049
13113.5 3.38081
13123.8 3.33318
13144.4 3.27197
13164.9 3.23348
13185.5 3.20598
13206.0 3.18447
13247.1 3.15102
13288.2 3.12540
13308.8 3.11715
13329.3 3.12239
13339.6 3.14611
13344.8 3.17581
13349.9 3.23634
13352.5 3.29082
13355.0 3.37725
13357.6 3.52361
13360.2 3.79556
13361.5 4.02716
13362.7 4.37745
13364.0 4.95077
13365.3 5.95794
13366.6 7.99982
13367.2 9.87285
13367.9 12.9882
13368.5 18.7000
13368.8 23.5009
13369.2 30.7606
13369.5 42.3778
13369.8 62.2976
13370.1 99.1985
13370.4 170.999
13370.7 273.424
13371.0 343.085
13371.3 276.699
13371.6 175.103
13371.8 109.571
13372.1 72.7142
13372.4 51.3917
13372.7 38.6889
13373.0 30.0808
13373.2 24.4036
13373.8 17.2401
13374.3 13.1158
13374.9 10.6126
13376.0 7.79595
13377.1 6.31950
13378.2 5.46199
13379.3 4.91420
13380.4 4.54223
13382.6 4.08063
13384.8 3.81575
13387.0 3.64871
13389.2 3.53641
13393.6 3.39692
13398.1 3.31625
13406.9 3.22883
13415.7 3.18301
13424.5 3.15479
13442.2 3.12089
13459.8 3.10005
13477.5 3.08491
13512.8 3.06237
13548.1 3.04462
13583.4 3.02921
13654.0 3.00197
13724.6 2.97732
13795.2 2.95416
13936.4 2.91034
14218.8 2.82673
14501.2 2.74262
15066.0 2.55564
15630.8 2.31574
15913.2 2.16116
16195.6 1.97031
16478.0 1.72641
16760.4 1.40242
16901.6 1.19771
17042.8 0.955880
17184.0 0.671747
17325.2 0.352140
17395.8 0.193862
17466.4 0.0633243
17484.1 0.0403322
17501.7 0.0235590
17519.4 0.0147243
17537.0 0.0159968
17554.7 0.0301267
17572.3 0.0606225
17590.0 0.111990
17607.6 0.190061
17625.3 0.302443
17642.9 0.459154
17660.6 0.673522
17678.2 0.963470
17713.5 1.87701
17748.8 3.53386
17766.5 4.83137
17784.1 6.61713
17801.8 9.10595
17819.4 12.6255
17837.1 17.6821
17854.7 25.0576
17872.4 35.9271
17890.0 51.8873
17922.5 98.3319
17955.0 143.526
17987.5 132.683
18020.0 95.0080
18050.9 67.5113
18081.9 50.0241
18112.8 38.8863
18143.8 31.4947
18174.7 26.3593
18205.6 22.6453
18267.5 17.7232
18329.4 14.6667
18391.3 12.6141
18515.0 10.0660
18638.8 8.56547
18762.5 7.58419
18886.3 6.89465
19010.0 6.38412
19257.5 5.67814
19505.0 5.21095
19752.5 4.87614
20000.0 4.62170
20343.2 4.35093
20686.4 4.13883
21372.8 3.80203
21716.0 3.64584
21887.6 3.56255
22059.2 3.46988
22230.8 3.35905
22316.6 3.29177
22402.4 3.21162
22488.2 3.11199
22531.1 3.05175
22574.0 2.98243
22616.9 2.90325
22659.8 2.82143
22681.2 2.79582
22692.0 2.80024
22702.7 2.83628
22708.1 2.87929
22713.4 2.95502
22718.8 3.09159
22724.1 3.35362
22726.8 3.57755
22729.5 3.91830
22732.2 4.46721
22734.9 5.42477
22737.5 7.30213
22738.9 8.99101
22740.2 11.7287
22741.6 16.5651
22742.9 26.1966
22743.6 34.9106
22744.2 48.8899
22744.9 72.4729
22745.6 113.088
22746.3 180.057
22747.0 224.085
22747.7 179.911
22748.4 113.377
22749.2 68.2159
22750.0 44.1015
22750.8 30.6906
22751.6 22.7742
22752.3 17.6620
22753.1 14.2352
22754.7 10.1118
22756.2 7.79998
22757.8 6.39318
22760.9 4.82268
22764.0 4.01047
22767.1 3.53178
22770.2 3.22216
22773.3 3.00718
22779.5 2.72739
22785.8 2.54844
22792.0 2.41756
22798.2 2.31170
22810.6 2.13293
22823.1 1.96701
22847.9 1.60460
22872.8 1.13280
22885.3 0.834267
22897.7 0.494163
22910.1 0.166018
22916.3 0.0798359
22919.5 0.0940648
22922.6 0.179561
22925.7 0.382875
22928.8 0.782916
22930.3 1.09818
22931.9 1.52052
22935.0 2.85818
22938.1 5.31098
22939.7 7.26011
22941.2 9.94585
22942.8 13.7348
22944.3 19.0613
22945.9 26.6281
22947.4 37.3174
22950.7 73.2278
22954.0 110.202
22955.7 113.140
22957.3 104.491
22960.6 76.4341
22962.7 61.1972
22964.8 49.7864
22969.0 35.1102
22973.3 26.7130
22977.5 21.5185
22981.7 18.0733
22985.9 15.6570
22994.4 12.5390
23002.8 10.6430
23011.2 9.38184
23028.1 7.82343
23045.0 6.90495
23061.9 6.30280
23078.8 5.87815
23095.7 5.56277
23129.4 5.12541
23163.2 4.83607
23196.9 4.62975
23230.7 4.47460
23298.2 4.25519
23365.8 4.10565
23500.8 3.90993
23635.9 3.78242
23770.9 3.68873
24041.0 3.55182
24311.1 3.44825
24581.2 3.36098
25121.4 3.20891
26201.8 2.92529
27282.2 2.60683
28362.6 2.18634
28902.8 1.90469
29443.0 1.54415
29983.2 1.06731
30253.3 0.773270
30523.4 0.446236
30793.5 0.129883
30861.1 0.0686850
30894.8 0.0440666
30928.6 0.0247814
30962.3 0.0121204
30996.1 0.00767607
31029.9 0.0133917
31063.6 0.0316722
31097.4 0.0655118
31131.2 0.118606
31164.9 0.195614
31198.7 0.302395
31232.4 0.446422
31266.2 0.637079
31333.7 1.21061
31401.3 2.17112
31468.8 3.77587
31502.5 4.95492
31536.3 6.50646
31553.2 7.47633
31561.6 8.03103
31570.1 8.65475
31578.5 9.39643
31582.7 9.85303
31586.9 10.4305
31591.2 11.2769
31593.3 11.9262
31595.4 12.9116
31597.5 14.6362
31598.6 16.0983
31599.6 18.3563
31600.7 22.2448
31601.7 29.6486
31602.2 36.2266
31602.8 46.5624
31603.3 63.5599
31603.8 91.2569
31604.4 138.192
31605.0 168.561
31605.6 135.489
31606.2 88.3664
31606.6 67.1949
31607.0 52.6385
31607.7 35.7032
31608.5 27.0928
31609.2 22.3357
31610.0 19.4203
31610.7 17.5556
31612.3 15.4514
31613.8 14.3853
31615.3 13.8171
31618.3 13.3477
31621.3 13.2736
31624.4 13.3727
31630.4 13.8024
31636.5 14.3787
31642.5 15.0348
31654.6 16.5112
31666.7 18.1779
31678.8 20.0445
31690.9 22.1674
31697.0 23.3833
31703.0 24.8201
31707.4 26.2009
31709.6 27.1479
31711.8 28.4700
31714.0 30.6358
31715.1 32.3861
31716.2 35.0122
31717.3 39.3915
31718.4 47.4928
31718.9 54.3548
31719.5 64.6996
31720.0 80.8097
31720.6 105.483
31721.3 154.030
31722.0 187.126
31722.7 156.977
31723.4 109.751
31724.1 80.1688
31724.8 63.1444
31725.5 53.1420
31726.2 46.9640
31727.6 40.2499
31729.0 37.0046
31730.3 35.2839
31731.7 34.3307
31734.5 33.5365
31737.2 33.4389
31740.0 33.6628
31745.5 34.5573
31751.0 35.7421
31756.6 37.0783
31767.6 40.0208
31789.7 46.5998
31811.7 53.7578
31900.0 78.9168
31949.3 82.3640
31998.5 77.2359
32097.0 58.0178
32188.0 43.2692
32278.9 33.4027
32369.9 26.8765
32460.9 22.4168
32642.8 16.9078
32824.7 13.7371
33006.6 11.7166
33188.6 10.3309
33552.4 8.56783
33916.3 7.49912
34280.1 6.78249
34644.0 6.26696
35007.8 5.87627
35735.5 5.31650
36463.2 4.92467
36827.1 4.76582
37190.9 4.62356
37372.9 4.55724
37554.8 4.49349
37736.7 4.43324
37782.2 4.42069
37827.7 4.41524
37850.4 4.42326
37873.2 4.46416
37884.5 4.53085
37890.2 4.60042
37895.9 4.72896
37901.6 5.00232
37904.4 5.26757
37907.3 5.73286
37910.1 6.66050
37911.5 7.50452
37913.0 8.89272
37914.4 11.3974
37915.1 13.4690
37915.8 16.5528
37916.5 21.3838
37917.2 29.4244
37917.9 43.6979
37918.6 69.9399
37919.3 109.825
37920.0 136.865
37920.7 110.898
37921.4 71.2847
37922.1 43.6089
37922.9 29.0491
37923.6 21.0441
37924.4 16.3564
37925.2 13.3437
37925.9 11.3536
37927.4 8.93089
37928.9 7.58453
37930.4 6.76126
37933.5 5.84846
37936.5 5.37955
37939.5 5.10639
37945.5 4.81541
37951.6 4.67019
37957.6 4.58666
37969.7 4.49724
37981.8 4.45124
37993.9 4.42334
38018.0 4.39025
38066.4 4.35496
38114.7 4.33193
38211.4 4.29563
38308.0 4.26358
38501.4 4.20359
38694.7 4.14597
39081.3 4.03378
39468.0 3.92271
40241.3 3.69292
41014.6 3.43094
41788.0 3.09161
42174.6 2.86401
42561.3 2.56435
42947.9 2.13709
43141.3 1.84219
43334.6 1.46091
43527.9 0.957543
43624.6 0.652545
43721.3 0.326881
43769.6 0.174246
43793.8 0.108226
43817.9 0.0547701
43842.1 0.0204656
43866.3 0.0149630
43890.4 0.0523871
43902.5 0.0933853
43914.6 0.153697
43926.7 0.237718
43938.8 0.350655
43962.9 0.691642
43987.1 1.25272
44011.2 2.15361
44035.4 3.58864
44059.6 5.86973
44083.7 9.49740
44107.9 15.2071
44130.2 23.0716
44152.5 33.7195
44197.0 55.7458
44219.3 59.5175
44241.6 56.9600
44286.1 44.2771
44330.7 33.1508
44375.4 25.7591
44420.0 20.9257
44464.7 17.6476
44509.3 15.3266
44553.9 13.6179
44643.2 11.2998
44732.5 9.81796
44821.8 8.79668
45000.3 7.48710
45178.9 6.68398
45357.5 6.13908
45714.6 5.43832
46071.7 4.99508
46428.8 4.67770
47143.1 4.22061
47857.3 3.86077
48571.5 3.51386
49285.8 3.11186
49642.9 2.85943
50000.0 2.54202
50381.5 2.07814
50572.2 1.76623
50763.0 1.37172
50953.7 0.866091
51049.1 0.569637
51144.4 0.265150
51192.1 0.130076
51216.0 0.0749224
51239.8 0.0336769
51263.7 0.0127537
51287.5 0.0212530
51311.3 0.0721292
51335.2 0.184101
51359.0 0.384618
51382.9 0.713971
51406.7 1.23281
51430.5 2.03287
51454.4 3.25409
51478.2 5.10931
51502.1 7.91499
51525.9 12.1101
51551.4 18.7116
51577.0 27.7676
51628.0 47.0158
51653.5 50.6752
51679.1 48.8985
51730.1 38.5270
51787.1 28.2932
51844.0 21.7418
51901.0 17.5911
51957.9 14.8337
52014.9 12.9061
52071.8 11.4974
52185.7 9.59387
52299.6 8.37457
52413.5 7.52691
52641.3 6.41556
52869.1 5.70046
53096.9 5.17949
53552.5 4.39448
54008.1 3.69140
54235.9 3.29674
54463.7 2.82131
54691.5 2.19608
54805.4 1.79232
54919.3 1.30242
55147.1 0.134224
55175.6 0.0433044
55189.8 0.0204868
55204.1 0.0197860
55218.3 0.0485984
55232.5 0.116753
55246.8 0.237353
55261.0 0.427821
55275.2 0.712138
55289.5 1.12236
55303.7 1.70224
55318.0 2.51065
55332.2 3.62929
55346.4 5.16550
55360.7 7.25945
55374.9 10.0812
55396.7 16.2337
55418.5 24.9219
55462.0 44.4783
55483.8 48.9501
55505.6 48.0979
55549.1 39.0529
55577.8 32.9597
55606.6 28.0737
55664.0 21.4389
55721.5 17.4439
55778.9 14.8920
55836.4 13.1861
55893.8 12.0598
55922.5 11.7072
55951.3 11.5737
55965.6 11.6691
55972.8 11.8008
55980.0 12.0373
55987.2 12.4770
55990.8 12.8484
55994.4 13.4243
55997.9 14.4180
55999.7 15.2372
56001.5 16.4817
56003.3 18.5904
56004.2 20.2679
56005.1 22.6876
56006.0 26.4938
56006.9 32.9394
56007.4 37.9640
56007.8 45.0004
56008.3 55.0233
56008.7 68.9444
56009.4 94.6911
56010.0 104.181
56010.6 76.7120
56011.3 46.4447
56011.8 31.7617
56012.3 23.2929
56012.9 18.3980
56013.4 15.4627
56014.5 12.4616
56015.5 11.1704
56016.6 10.5823
56017.6 10.3183
56019.8 10.2024
56024.0 10.4692
56028.2 10.8869
56036.7 11.9084
56045.2 13.3645
56053.6 15.7766
56062.1 20.3315
56066.3 24.2586
56070.6 30.2296
56074.8 39.6227
56079.0 54.4963
56084.5 83.4499
56090.0 104.075
56095.5 86.5480
56101.0 58.3704
56106.7 39.3536
56112.4 28.7630
56118.1 22.6698
56123.8 18.9338
56129.5 16.4995
56135.3 14.8290
56146.7 12.7440
56158.1 11.5264
56169.5 10.7422
56192.3 9.79729
56215.2 9.24099
56238.0 8.86406
56283.7 8.35924
56329.3 8.01193
56375.0 7.74287
56466.3 7.33010
56557.7 7.01336
56649.0 6.75554
56831.7 6.35154
57014.3 6.04230
57197.0 5.79282
57562.3 5.40128
57927.7 5.08695
58293.0 4.79910
58475.7 4.65077
58567.0 4.57255
58658.3 4.49061
58749.7 4.40551
58841.0 4.32641
58886.7 4.30617
58909.5 4.31447
58932.3 4.35535
58943.8 4.40109
58955.2 4.47974
58966.6 4.61874
58978.0 4.87948
58989.4 5.42461
58995.1 5.93660
59000.8 6.79263
59006.6 8.36736
59009.4 9.68998
59012.3 11.6720
59015.1 14.8246
59018.0 20.1262
59020.8 29.6926
59023.7 47.6402
59026.3 74.7094
59029.0 93.4047
59031.7 76.4087
59034.3 49.8162
59037.1 32.3167
59039.8 22.5332
59042.5 16.8960
59045.2 13.4550
59047.9 11.2126
59050.6 9.68877
59056.1 7.80514
59061.5 6.73268
59066.9 6.06306
59077.8 5.29961
59088.7 4.89061
59099.5 4.64057
59110.4 4.47239
59121.2 4.35066
59143.0 4.18187
59164.7 4.06377
59208.1 3.88810
59295.0 3.59047
59381.9 3.24681
59468.8 2.76592
59512.2 2.43188
59555.6 1.99557
59599.1 1.40921
59620.8 1.04429
59642.5 0.635965
59664.2 0.235199
59675.1 0.0933622
59686.0 0.0736297
59691.4 0.152212
59696.8 0.329859
59702.3 0.655798
59707.7 1.20464
59713.1 2.09005
59718.5 3.48452
59724.0 5.64446
59729.4 8.92879
59735.6 14.5484
59741.7 22.5675
59754.0 40.9617
59760.2 45.3913
59766.3 44.8695
59778.6 36.7953
59788.0 30.4545
59797.3 25.5529
59806.7 21.9221
59816.1 19.2262
59834.8 15.5990
59853.5 13.3359
59872.2 11.8139
59891.0 10.7307
59928.4 9.30142
59965.9 8.40657
60003.3 7.79545
60078.2 7.01511
60153.1 6.53688
60228.0 6.21260
60377.8 5.79985
60527.6 5.55443
60602.5 5.47481
60677.4 5.42784
60752.3 5.43732
60789.8 5.48640
60827.2 5.60162
60864.7 5.86655
60883.4 6.12322
60902.1 6.55705
60920.9 7.35581
60930.2 8.02299
60939.6 9.02167
60948.9 10.5954
60958.3 13.2220
60967.7 17.8985
60977.0 26.5190
60986.0 39.7171
60995.0 48.7825
61004.0 40.3309
61013.0 27.2949
61018.9 21.2750
61024.7 17.1209
61036.4 12.2642
61048.2 9.76924
61059.9 8.35613
61071.6 7.48534
61083.3 6.91304
61106.7 6.23096
61130.2 5.85263
61153.6 5.61870
61200.5 5.35001
61247.3 5.20099
61294.2 5.10486
61387.9 4.98285
61481.7 4.90262
61575.4 4.84142
61762.9 4.74634
61950.4 4.66957
62137.8 4.60211
62325.3 4.53976
62372.2 4.52625
62419.1 4.52030
62442.5 4.53026
62465.9 4.58238
62477.7 4.66921
62483.5 4.76023
62489.4 4.92811
62495.2 5.28067
62498.2 5.61684
62501.1 6.19188
62504.0 7.28390
62505.5 8.23550
62506.9 9.70761
62508.4 12.1743
62509.9 16.6074
62511.3 25.4660
62512.1 33.2048
62512.8 44.6134
62513.9 69.6784
62515.0 86.9116
62516.1 71.1796
62517.2 46.7902
62518.2 31.6780
62519.3 22.8635
62520.3 17.5588
62521.3 14.2080
62523.4 10.4314
62525.4 8.50765
62527.4 7.39327
62529.5 6.69716
62533.6 5.90307
62537.7 5.48179
62541.7 5.23136
62549.9 4.95727
62558.1 4.81640
62566.2 4.73309
62582.6 4.64109
62615.3 4.56118
62648.0 4.52352
62713.3 4.48211
62778.7 4.45502
62909.4 4.41338
63040.2 4.37784
63301.6 4.31362
63563.1 4.25385
64086.1 4.14050
64609.0 4.03002
65654.9 3.80068
66700.8 3.53167
67746.7 3.16918
68269.7 2.91960
68792.6 2.58725
69315.6 2.11347
69577.0 1.79063
69838.5 1.38236
70100.0 0.865371
70361.5 0.269749
70426.8 0.139470
70459.5 0.0862746
70492.2 0.0457926
70524.9 0.0231032
70557.6 0.0251218
70590.3 0.0612186
70622.9 0.144216
70655.6 0.291795
70688.3 0.528221
70721.0 0.887437
70753.7 1.41614
70786.4 2.17965
70819.0 3.26643
70851.7 4.79528
70884.4 6.91620
70932.6 11.4744
70980.7 18.0439
71077.0 33.3748
71125.2 37.2388
71173.3 37.0287
71269.6 30.6615
71384.2 23.1294
71498.9 18.2179
71613.5 15.0939
71728.1 13.0126
71842.7 11.5532
71957.3 10.4838
72186.6 9.03420
72415.8 8.10401
72645.1 7.45863
73103.6 6.62136
73562.1 6.09868
74020.5 5.73714
74937.5 5.25636
75854.5 4.92951
76771.5 4.65549
77230.0 4.50790
77459.2 4.42021
77688.5 4.31179
77917.7 4.16081
78032.3 4.05364
78146.9 3.90531
78204.3 3.80548
78261.6 3.67814
78318.9 3.50862
78376.2 3.26975
78404.8 3.10877
78433.5 2.90535
78462.2 2.63998
78490.8 2.28058
78519.5 1.77134
78533.8 1.43387
78548.1 1.02552
78562.4 0.550581
78576.8 0.111844
78583.9 0.0518889
78587.5 0.139010
78591.1 0.372420
78594.7 0.843997
78598.3 1.70314
78601.8 3.18906
78605.4 5.66453
78609.1 9.69628
78612.7 15.6122
78620.0 29.9602
78623.7 33.9157
78627.3 34.1346
78634.6 28.8178
78640.0 24.4027
78645.3 20.8657
78650.7 18.1741
78656.1 16.1379
78666.8 13.3418
78677.6 11.5627
78688.3 10.3515
78699.1 9.48127
78720.6 8.32359
78742.1 7.59335
78763.6 7.09266
78785.1 6.72856
78806.6 6.45201
78849.6 6.05961
78892.6 5.79415
78935.6 5.60209
78978.6 5.45622
79064.6 5.24810
79150.6 5.10527
79236.6 4.99989
79322.6 4.91797
79494.6 4.79645
79666.6 4.70793
80010.6 4.58052
80354.6 4.48610
80698.6 4.40775
81386.6 4.27218
82074.6 4.14205
82418.6 4.07214
82762.6 3.99401
83106.6 3.90085
83278.6 3.84490
83450.6 3.77921
83622.6 3.69940
83708.6 3.65230
83794.6 3.59937
83966.6 3.48619
84009.6 3.47589
84031.1 3.48738
84052.6 3.52789
84074.1 3.64129
84084.8 3.76372
84095.6 3.98862
84106.3 4.44753
84111.7 4.87088
84117.1 5.56724
84122.5 6.82234
84125.2 7.85482
84127.8 9.37441
84130.5 11.7375
84133.2 15.5922
84135.9 22.3003
84138.6 34.2094
84141.3 53.1123
84144.0 65.8900
84146.7 53.6296
84149.4 34.8873
84151.3 25.8730
84153.2 19.8216
84155.0 15.7206
84156.9 12.9105
84160.6 9.45752
84164.4 7.54102
84168.1 6.37341
84171.8 5.61415
84179.3 4.72030
84186.7 4.23016
84194.2 3.93003
84209.1 3.58734
84224.0 3.39597
84238.9 3.26910
84268.7 3.09375
84328.3 2.82292
84387.9 2.52288
84447.6 2.10766
84477.4 1.82252
84507.2 1.45613
84537.0 0.978610
84566.8 0.388220
84581.7 0.115659
84589.2 0.0378449
84596.6 0.0592939
84604.1 0.279333
84607.8 0.518830
84611.5 0.891532
84615.3 1.45395
84619.0 2.27858
84622.7 3.47264
84626.4 5.16187
84631.8 8.81145
84637.2 14.1603
84648.0 27.0804
84653.4 30.6112
84658.8 30.7716
84669.6 25.9254
84678.4 21.5572
84687.1 18.1689
84695.9 15.6758
84704.7 13.8331
84722.2 11.3697
84739.8 9.83909
84757.3 8.81270
84774.9 8.08450
84809.9 7.13345
84845.0 6.56764
84862.6 6.38730
84880.1 6.28390
84897.7 6.31062
84906.4 6.42393
84915.2 6.68267
84924.0 7.25974
84928.4 7.80248
84932.7 8.68804
84937.1 10.2406
84941.5 13.2155
84943.7 15.7938
84945.9 19.6998
84948.1 25.8224
84950.3 35.4701
84953.1 54.3600
84956.0 67.6743
84958.9 56.1691
84961.7 37.7446
84964.8 24.9930
84967.9 18.0798
84971.0 14.1712
84974.1 11.8052
84977.2 10.2750
84980.3 9.23764
84986.5 7.95549
84992.7 7.21744
84998.9 6.75018
85011.2 6.20060
85023.6 5.89027
85036.0 5.68917
85060.7 5.43669
85085.4 5.27647
85110.2 5.16001
85159.7 4.99271
85209.1 4.87180
85258.6 4.77699
85357.6 4.63344
85456.5 4.52686
85555.5 4.44276
85753.4 4.31494
85951.3 4.21861
86149.2 4.14022
86545.1 4.01227
86940.9 3.90252
87336.7 3.79807
87732.6 3.69015
87930.5 3.63765
87979.9 3.63275
88029.4 3.65485
88054.2 3.70643
88066.5 3.76461
88078.9 3.87595
88091.3 4.11561
88097.5 4.34765
88103.6 4.74741
88109.8 5.51408
88112.9 6.18210
88116.0 7.22646
88119.1 8.97068
88122.2 12.1407
88125.3 18.5244
88126.8 24.1611
88128.4 32.4614
88130.7 50.5902
88133.0 63.2536
88135.3 52.0921
88137.6 34.3800
88139.7 23.8690
88141.7 17.5083
88143.8 13.6047
88145.8 11.1027
88149.9 8.25078
88154.0 6.77021
88158.1 5.90494
88162.2 5.35839
88170.4 4.72877
88178.6 4.39197
88186.8 4.18927
88203.2 3.96466
88219.6 3.84664
88235.9 3.77513
88268.7 3.69268
88301.5 3.64525
88334.2 3.61292
88399.8 3.56783
88530.8 3.50470
88661.9 3.45148
88924.0 3.34753
89186.1 3.23490
89448.2 3.10595
89710.3 2.95252
89841.4 2.86292
89972.5 2.76160
90103.5 2.64635
90169.0 2.60235
90185.4 2.61612
90201.8 2.69873
90210.0 2.83534
90218.2 3.22714
90222.3 3.73303
90224.3 4.19332
90226.4 4.93728
90228.4 6.25230
90230.5 8.83402
90231.5 11.1358
90232.5 14.7041
90233.5 20.5033
90234.6 30.1070
90235.8 47.4671
90237.0 59.8195
90238.2 49.1818
90239.4 32.2471
90240.5 22.0041
90241.6 15.8270
90242.7 12.0659
90243.8 9.66891
90246.0 6.95078
90248.2 5.54763
90250.4 4.72677
90252.6 4.20931
90257.0 3.61135
90261.4 3.28945
90265.8 3.09495
90274.6 2.87658
90292.1 2.68538
90309.7 2.59570
90344.9 2.49696
90380.0 2.43030
90520.6 2.21002
90661.1 1.96843
90801.7 1.66886
90942.2 1.27693
91012.5 1.03164
91082.8 0.745917
91153.1 0.426937
91188.2 0.272148
91223.4 0.154281
91240.9 0.129791
91258.5 0.150333
91276.1 0.246589
91293.6 0.471056
91302.4 0.657915
91311.2 0.915578
91328.8 1.74358
91346.3 3.24502
91363.9 5.90207
91377.7 9.21203
91391.5 13.7840
91419.0 23.6076
91432.8 25.5243
91446.6 24.6633
91474.1 19.3933
91494.2 15.7175
91514.3 12.8963
91534.3 10.7981
91554.4 9.22175
91594.5 7.05206
91634.7 5.63282
91674.8 4.61170
91715.0 3.81569
91795.3 2.56426
91875.5 1.50635
91955.8 0.560743
91975.9 0.367951
91996.0 0.218144
92016.1 0.139714
92036.1 0.179762
92046.2 0.266943
92056.2 0.416214
92066.2 0.645691
92076.3 0.977663
92086.3 1.44167
92096.3 2.07291
92116.4 4.02436
92137.3 7.43593
92158.2 12.6786
92200.0 26.2118
92220.9 30.4125
92241.8 31.2094
92283.6 27.0800
92316.1 23.0491
92348.6 19.7576
92381.1 17.2443
92413.7 15.3327
92478.7 12.6934
92543.7 10.9942
92608.7 9.81970
92673.8 8.96114
92803.8 7.78500
92933.9 7.00623
93063.9 6.43893
93324.0 5.61841
93584.1 4.95648
93714.2 4.61540
93844.2 4.22051
93974.3 3.70355
94039.3 3.35764
94104.3 2.90949
94169.3 2.29571
94201.8 1.89564
94234.4 1.41282
94299.4 0.264779
94315.6 0.0873390
94323.8 0.0871552
94331.9 0.197744
94340.0 0.486982
94348.2 1.06116
94356.3 2.08451
94364.4 3.79608
94373.8 7.05375
94383.2 12.0925
94402.0 25.2860
94411.4 29.5105
94420.8 30.4613
94439.6 26.7380
94456.1 22.5270
94472.5 19.1924
94489.0 16.7335
94505.4 14.9186
94538.3 12.4906
94571.2 10.9763
94604.2 9.95423
94637.1 9.22143
94702.9 8.24312
94768.7 7.61880
94834.5 7.18391
94966.1 6.61236
95097.8 6.24755
95229.4 5.99000
95492.7 5.64174
95756.0 5.40962
96019.2 5.23883
96545.8 4.99552
97072.3 4.82311
97335.6 4.75268
97598.8 4.68993
97862.1 4.63425
97993.8 4.60972
98125.4 4.58911
98257.0 4.57742
98322.8 4.57975
98388.7 4.59562
98454.5 4.64506
98487.4 4.70005
98520.3 4.80235
98553.2 5.01272
98569.7 5.20705
98586.1 5.52660
98602.6 6.09830
98619.0 7.24549
98627.3 8.28681
98635.5 9.95403
98643.7 12.7612
98651.9 17.5688
98661.0 25.7577
98670.0 31.5002
98679.1 26.4278
98688.1 18.4124
98698.3 12.6883
98708.6 9.67676
98718.8 8.01887
98729.1 7.03498
98739.3 6.41005
98749.6 5.99024
98770.1 5.47971
98790.6 5.19240
98811.1 5.01398
98852.1 4.81090
98893.1 4.70161
98934.1 4.63427
98975.1 4.58856
99016.1 4.55523
99098.1 4.50871
99180.1 4.47634
99344.1 4.43026
99508.0 4.39530
99672.0 4.36541
100000 4.31287
100419 4.25226
100838 4.19453
101257 4.13746
101466 4.11491
101518 4.11754
101571 4.14351
101597 4.19007
101610 4.23966
101623 4.33204
101636 4.52727
101643 4.71647
101649 5.03735
101656 5.66338
101659 6.21557
101662 7.05674
101666 8.52069
101669 11.1399
101671 13.4740
101672 16.7423
101674 21.6717
101675 29.1178
101678 44.8183
101680 55.7696
101682 45.7546
101685 30.2833
101687 19.7085
101690 14.0520
101692 10.8981
101695 9.01119
101697 7.80717
101700 6.99655
101705 6.02497
101710 5.46623
101714 5.12782
101724 4.74272
101734 4.54139
101744 4.42213
101764 4.29205
101784 4.22460
101804 4.18443
101843 4.13867
101923 4.09512
102002 4.07090
102160 4.03774
102319 4.01126
102478 3.98909
102636 3.97977
102715 3.99482
102755 4.01854
102795 4.06898
102834 4.18455
102854 4.29861
102874 4.49653
102894 4.87386
102904 5.19956
102914 5.70163
102923 6.52156
102933 7.95978
102943 10.6972
102953 16.2051
102962 24.1509
102970 29.7970
102979 25.0783
102987 17.4874
102995 12.7133
103003 9.89116
103011 8.19139
103018 7.12678
103034 5.90785
103050 5.28150
103066 4.91397
103081 4.68188
103113 4.41186
103144 4.26390
103176 4.17271
103207 4.11091
103239 4.06642
103302 4.00544
103365 3.96444
103490 3.90832
103616 3.86672
103742 3.83073
103994 3.76286
104245 3.69117
104497 3.60800
104749 3.50393
105000 3.36252
105244 3.15629
105365 3.00457
105487 2.79278
105609 2.47258
105670 2.24137
105731 1.93111
105792 1.49587
105822 1.21131
105852 0.870739
105883 0.479253
105913 0.120979
105928 0.0589684
105936 0.108992
105944 0.255902
105951 0.554151
105959 1.08749
105966 1.98229
105974 3.41986
105983 6.14147
105992 10.2686
106010 20.7735
106019 23.9872
106028 24.5617
106046 21.3137
106059 18.3294
106073 15.8686
106086 13.9702
106099 12.5164
106126 10.5019
106152 9.21196
106179 8.32500
106206 7.68600
106259 6.83744
106312 6.30578
106365 5.95029
106471 5.53333
106578 5.37399
106631 5.39389
106684 5.52095
106737 5.85925
106764 6.19172
106790 6.74604
106817 7.75218
106830 8.58237
106843 9.81565
106857 11.7471
106870 14.9737
106883 20.7622
106896 31.4547
106908 46.2235
106920 54.8375
106932 43.2824
106944 27.7660
106957 17.5473
106969 12.2977
106982 9.44823
106995 7.78708
107008 6.75362
107021 6.07509
107046 5.27915
107072 4.85765
107097 4.61758
107149 4.41271
107200 4.46916
107225 4.63549
107251 4.98539
107277 5.71568
107302 7.36911
107315 8.99031
107328 11.7450
107341 16.6868
107353 25.8118
107367 41.5946
107380 54.4707
107393 47.2115
107407 32.8258
107417 24.7661
107427 19.4298
107437 15.8328
107447 13.3915
107468 10.3796
107488 8.69010
107508 7.63731
107528 6.93938
107569 6.08394
107609 5.59050
107650 5.27494
107731 4.89652
107812 4.67707
107893 4.53258
108055 4.34899
108217 4.23218
108379 4.14730
108703 4.02405
109028 3.93090
109352 3.85197
110000 3.71112
110770 3.54215
111155 3.44523
111540 3.32908
111925 3.17489
112118 3.07041
112310 2.93129
112503 2.72721
112599 2.57985
112695 2.37759
112791 2.07740
112839 1.86438
112888 1.58217
112936 1.19480
112960 0.945999
112984 0.656443
113008 0.337382
113032 0.0799099
113044 0.0754500
113056 0.317428
113062 0.618539
113068 1.12367
113074 1.93328
113080 3.18730
113088 5.68569
113095 9.40379
113110 18.7419
113118 21.5480
113125 21.9402
113140 18.8903
113156 15.1062
113172 12.3973
113188 10.5612
113205 9.28464
113221 8.36279
113237 7.67283
113269 6.72138
113301 6.10190
113317 5.87251
113333 5.68702
113349 5.55107
113365 5.50948
113374 5.58977
113382 5.90949
113386 6.34607
113390 7.38657
113392 8.50278
113394 10.6482
113395 12.5109
113396 15.3727
113397 19.9307
113398 27.6349
113399 41.7167
113400 50.6598
113401 42.0642
113402 28.0636
113404 20.3180
113405 15.3464
113406 12.3327
113407 10.5639
113409 8.40757
113411 7.27776
113415 6.17729
113419 5.69342
113428 5.25524
113436 5.05296
113453 4.84227
113470 4.71469
113504 4.55970
113513 4.56211
113521 4.65607
113526 4.82796
113530 5.30653
113532 5.89899
113534 7.22513
113535 8.64809
113536 10.9602
113537 15.9778
113538 19.9098
113538 25.7778
113539 40.1417
113540 49.2782
113541 41.9136
113542 27.9271
113542 21.1775
113543 16.7338
113544 11.7006
113545 9.18873
113547 7.78649
113549 6.33030
113551 5.67905
113556 5.08077
113561 4.82240
113571 4.58258
113581 4.46717
113600 4.33723
113620 4.25275
113659 4.15514
113668 4.17988
113678 4.32896
113683 4.57252
113688 5.21745
113690 6.02201
113693 7.67312
113694 9.23405
113695 11.8290
113696 16.3954
113698 25.0524
113699 39.4381
113700 49.6137
113701 42.2992
113702 28.6799
113703 21.4726
113704 16.4946
113705 13.3005
113706 11.3592
113708 8.76901
113710 7.43060
113714 6.05336
113718 5.40860
113726 4.82601
113734 4.56864
113749 4.32944
113765 4.21275
113796 4.08573
113827 4.00734
113889 3.89831
113951 3.81542
114075 3.67909
114137 3.61309
114168 3.59360
114183 3.70016
114187 3.84191
114191 4.24423
114193 4.77339
114195 5.93523
114196 7.21172
114197 9.30300
114198 14.0263
114198 18.3216
114199 24.3794
114199 38.1653
114200 47.7110
114201 40.2994
114201 26.9333
114202 19.8743
114203 15.7014
114204 10.8985
114205 8.28115
114206 6.96773
114208 5.56531
114210 4.90952
114214 4.32552
114218 4.07382
114227 3.85657
114235 3.76245
114252 3.67417
114268 3.62933
114335 3.54085
114469 3.43462
114603 3.34017
114636 3.32056
114669 3.32134
114686 3.35712
114703 3.50376
114711 3.72805
114715 3.94979
114719 4.32286
114724 5.04486
114726 5.66501
114728 6.61462
114730 8.14857
114732 10.7913
114734 15.6745
114736 24.4727
114738 38.9028
114740 48.9567
114742 40.6780
114744 27.6253
114746 19.9947
114747 15.4022
114749 12.3950
114750 10.3651
114753 7.86323
114756 6.54294
114759 5.71912
114762 5.20110
114768 4.58279
114774 4.23397
114780 4.01874
114793 3.77460
114805 3.64045
114817 3.55738
114841 3.45810
114890 3.35922
114938 3.30511
114987 3.27232
115036 3.27153
115060 3.30897
115084 3.44729
115096 3.64114
115102 3.82226
115108 4.11495
115115 4.64290
115121 5.66411
115124 6.60022
115127 8.01778
115130 10.3039
115133 14.0306
115136 21.0534
115140 26.1569
115144 22.0386
115147 15.2585
115150 11.5611
115153 9.24325
115156 7.72158
115159 6.69316
115164 5.43888
115170 4.76474
115176 4.35008
115181 4.08507
115193 3.76725
115204 3.59065
115215 3.48050
115238 3.35189
115283 3.22994
115328 3.16552
115419 3.08417
115509 3.02258
115870 2.80134
116051 2.67495
116142 2.59997
116232 2.51005
116322 2.39149
116368 2.31187
116413 2.20650
116458 2.05279
116481 1.94224
116503 1.79064
116526 1.56646
116548 1.19831
116560 0.913384
116571 0.527785
116582 0.189266
116585 0.260594
116588 0.581491
116591 1.46967
116592 2.32366
116593 3.62770
116595 6.06602
116597 9.39945
116600 17.5209
116602 19.6733
116603 19.6235
116607 16.3876
116609 13.5511
116612 11.4452
116615 9.89049
116617 8.73656
116622 7.16290
116628 6.20201
116633 5.54373
116638 5.08363
116649 4.47327
116659 4.08530
116669 3.82143
116690 3.47959
116711 3.26698
116732 3.12009
116774 2.92573
116816 2.79753
116858 2.70270
116941 2.56174
117109 2.35635
117276 2.18178
117610 1.83230
117945 1.43158
118279 0.947592
118447 0.673000
118614 0.389753
118781 0.137376
118865 0.0540494
118907 0.0341926
118948 0.0362793
118990 0.0687947
119032 0.143894
119074 0.281058
119116 0.515118
119158 0.922591
119178 1.24871
119199 1.73490
119220 2.54040
119231 3.18305
119241 4.11922
119252 5.61130
119262 8.15406
119273 13.0365
119278 17.1051
119283 22.9335
119292 36.8354
119300 46.9085
119307 41.5537
119314 30.5461
119317 26.2298
119323 20.3220
119328 16.1938
119339 11.3801
119349 8.95601
119360 7.67627
119382 6.66080
119403 6.57060
119446 7.50353
119489 9.18298
119660 18.4563
119745 21.5918
119830 22.4469
120000 20.0175
120006 19.8944
120021 19.5913
120035 19.2871
120065 18.6820
120124 17.5136
120241 15.4580
120359 13.8072
120476 12.5037
120711 10.6340
120946 9.39120
121181 8.51758
121417 7.87435
121887 6.99411
122357 6.41939
122827 6.01230
123767 5.46292
124708 5.08911
125648 4.77978
126118 4.61549
126353 4.51857
126588 4.39934
126823 4.23410
126941 4.11726
127058 3.95640
127117 3.84852
127176 3.71148
127235 3.53009
127293 3.27711
127352 2.89578
127382 2.62229
127411 2.25913
127440 1.75560
127455 1.43020
127470 1.04487
127499 0.189058
127507 0.0738563
127514 0.154979
127521 0.670257
127525 1.23869
127528 2.10642
127534 4.24316
127539 7.70313
127550 17.3689
127555 20.8051
127561 21.9340
127572 19.8857
127580 17.4044
127588 15.2824
127597 13.6245
127605 12.3600
127622 10.5820
127639 9.42965
127655 8.63411
127672 8.05602
127705 7.27678
127739 6.77794
127772 6.43180
127839 5.98258
127906 5.70232
127973 5.51006
128106 5.25990
128240 5.10084
128374 4.98814
128641 4.83274
128908 4.72422
129175 4.63953
129309 4.60444
129443 4.58116
129510 4.58598
129543 4.60195
129576 4.64094
129610 4.73757
129626 4.83794
129643 5.01935
129660 5.38440
129668 5.71903
129677 6.25616
129685 7.21207
129693 9.05851
129697 10.7061
129702 13.2803
129706 17.4609
129710 24.1215
129715 36.7021
129720 45.4272
129725 37.7558
129730 25.7626
129734 18.7521
129739 14.5009
129743 11.8200
129747 10.0648
129756 8.00299
129764 6.92369
129772 6.27879
129781 5.87148
129798 5.39663
129815 5.13751
129831 4.97987
129865 4.80280
129899 4.70711
129933 4.64757
130000 4.57565
130092 4.51840
130184 4.47892
130368 4.41800
130552 4.36895
130598 4.36594
130644 4.38952
130667 4.43832
130690 4.58717
130701 4.78640
130707 4.97533
130713 5.28840
130719 5.88475
130722 6.39923
130724 7.16401
130727 8.46759
130730 10.7130
130732 12.6683
130733 15.3072
130734 19.1466
130736 24.7060
130738 37.0279
130740 44.6021
130742 36.2288
130744 24.4478
130746 17.3601
130748 13.1045
130750 10.5133
130752 8.86573
130756 7.00863
130759 6.07634
130763 5.52310
130767 5.18572
130774 4.79715
130789 4.47562
130804 4.35993
130820 4.35175
130835 4.54123
130842 4.86556
130846 5.18771
130850 5.71282
130853 6.67431
130857 8.48473
130859 10.0795
130861 12.4938
130863 16.2389
130865 21.6899
130867 34.6858
130870 44.8508
130873 38.6925
130876 27.2658
130877 21.8529
130879 17.9450
130882 13.1228
130886 10.4885
130889 8.92132
130893 7.91722
130896 7.23444
130903 6.39626
130909 5.90107
130916 5.58853
130930 5.21539
130943 5.00471
130957 4.87250
130984 4.71549
131011 4.62514
131038 4.56637
131092 4.49266
131146 4.44668
131200 4.41381
131308 4.36672
131525 4.30112
131741 4.24623
131957 4.18874
132174 4.11306
132282 4.05490
132336 4.01350
132390 3.95584
132444 3.86617
132471 3.79773
132498 3.69921
132525 3.54176
132539 3.42160
132552 3.24928
132566 2.98109
132579 2.50781
132586 2.10411
132593 1.48552
132600 0.513539
132603 0.166090
132605 0.521343
132606 2.08601
132607 3.99832
132608 7.13623
132610 15.8544
132611 18.9124
132612 19.8717
132614 17.9490
132616 14.2433
132619 11.6288
132621 9.97875
132623 8.92349
132628 7.58613
132633 6.83445
132638 6.34121
132643 6.00581
132653 5.56691
132663 5.29595
132673 5.11211
132693 4.87931
132712 4.73627
132732 4.63949
132772 4.51618
132811 4.43952
132851 4.38662
132930 4.31626
133009 4.26953
133088 4.23470
133246 4.18257
133562 4.10484
133720 4.06590
133799 4.03988
133839 4.03085
133859 4.09753
133864 4.19111
133869 4.46072
133871 4.82206
133874 5.64869
133875 6.62829
133876 8.39838
133877 12.2440
133878 15.8830
133878 21.8692
133879 33.2640
133880 41.8684
133881 35.1182
133882 24.0547
133882 18.8869
133883 14.7529
133884 10.4781
133885 8.31200
133886 7.09096
133888 5.80987
133891 5.23701
133895 4.71198
133900 4.48708
133909 4.29555
133917 4.21489
133935 4.14348
133953 4.11089
134025 4.06053
134168 4.01973
134455 3.96194
134741 3.90312
134884 3.86568
134956 3.84633
134992 3.88906
135001 3.96002
135010 4.17579
135014 4.47005
135019 5.20187
135021 6.05079
135023 7.68995
135024 9.15996
135025 11.4834
135026 15.3116
135027 21.8646
135029 33.4856
135030 42.1797
135031 35.4067
135033 24.1837
135034 18.0359
135035 13.7769
135036 11.1075
135037 9.37011
135039 7.35794
135041 6.32994
135046 5.29215
135050 4.81555
135058 4.39550
135067 4.21554
135084 4.06014
135102 3.99306
135136 3.93129
135170 3.90076
135239 3.86602
135308 3.84285
135584 3.77324
135859 3.70715
136135 3.63500
136411 3.55188
136686 3.45147
136824 3.39151
136962 3.32171
137100 3.23676
137169 3.19316
137203 3.23304
137212 3.30951
137220 3.54415
137225 3.85698
137229 4.61863
137231 5.48438
137233 7.11421
137234 8.62795
137235 11.0266
137236 14.9843
137237 20.9870
137239 32.3978
137240 40.8632
137241 34.1118
137243 23.0483
137244 17.0052
137245 12.8259
137246 10.2101
137247 8.63751
137249 6.67194
137251 5.61426
137255 4.57549
137259 4.09709
137268 3.67072
137276 3.48903
137293 3.32721
137310 3.25215
137344 3.17200
137377 3.12086
137512 2.96238
137647 2.78975
137782 2.56715
137917 2.25642
137985 2.04776
138052 1.78602
138119 1.45011
138153 1.24771
138187 1.02089
138221 0.777505
138254 0.565832
138271 0.531715
138288 0.684905
138297 0.966311
138305 1.62830
138309 2.28245
138313 3.39369
138318 5.38572
138322 9.05826
138326 14.9925
138330 19.2183
138334 15.8594
138338 10.3677
138343 6.10822
138349 4.00852
138354 2.96017
138359 2.44129
138369 2.20852
138379 2.60960
138394 4.19270
138410 7.01290
138440 15.0729
138455 17.8791
138471 18.6955
138501 16.7538
138531 14.0670
138560 11.9720
138590 10.4562
138620 9.35888
138649 8.53718
138679 7.90986
138694 7.65211
138709 7.44492
138716 7.38330
138723 7.42419
138727 7.57284
138731 8.03226
138733 8.62304
138735 9.83361
138736 11.1494
138736 13.1923
138737 16.8568
138738 24.4230
138739 35.1011
138740 43.6868
138741 36.7263
138742 26.2906
138742 20.5379
138743 17.0531
138744 13.0327
138746 10.8588
138747 9.74196
138749 8.54689
138752 7.99118
138757 7.45143
138761 7.19099
138771 6.91321
138781 6.74664
138801 6.51201
138820 6.33197
138860 6.04403
138899 5.81422
138978 5.46069
139056 5.19827
139214 4.82721
139371 4.57008
139528 4.37388
139686 4.21242
140000 3.93916
140390 3.60915
140584 3.41395
140779 3.16837
140974 2.82389
141071 2.58431
141169 2.26770
141266 1.82599
141315 1.53428
141363 1.17798
141412 0.748554
141461 0.279788
141485 0.0908842
141509 0.0463759
141522 0.144256
141534 0.386166
141546 0.858587
141558 1.67247
141566 2.45162
141574 3.47046
141589 6.41897
141620 14.7766
141636 17.7821
141651 18.7894
141682 17.0645
141714 14.3398
141745 12.2079
141777 10.6841
141808 9.58594
141840 8.77188
141872 8.15007
141935 7.27107
141998 6.68114
142061 6.25982
142187 5.69606
142314 5.33577
142377 5.20161
142440 5.09215
142503 5.00988
142566 4.97945
142598 5.01919
142614 5.07727
142629 5.19344
142645 5.44101
142653 5.67320
142661 6.05956
142669 6.76180
142673 7.35366
142677 8.21449
142681 9.60231
142685 11.8610
142689 15.8580
142693 23.1830
142696 34.4962
142700 41.7884
142704 34.1119
142708 23.0963
142710 17.7407
142713 14.1631
142715 11.7725
142718 10.1896
142723 8.17730
142728 7.08628
142733 6.41345
142738 5.98614
142749 5.47910
142759 5.20319
142769 5.03491
142790 4.84489
142810 4.73977
142831 4.67207
142872 4.58417
142954 4.47650
143037 4.40167
143119 4.34872
143201 4.33663
143242 4.37278
143263 4.41799
143283 4.50086
143304 4.66453
143314 4.81007
143324 5.04218
143335 5.46258
143340 5.82180
143345 6.36865
143350 7.31800
143353 8.07553
143355 9.12676
143358 10.7915
143360 13.3820
143363 18.0529
143365 26.0651
143368 36.8259
143370 42.0089
143372 32.0881
143375 20.1461
143376 14.2632
143378 10.8605
143380 8.72822
143382 7.35277
143385 5.77740
143388 5.03163
143395 4.40974
143402 4.22696
143416 4.26839
143430 4.57441
143444 5.21477
143457 6.58969
143464 7.88818
143471 10.0313
143478 13.7472
143485 20.2158
143492 31.9470
143500 41.3668
143508 35.7312
143515 24.9425
143520 20.0241
143524 16.4503
143534 12.0059
143543 9.56038
143552 8.09982
143561 7.16200
143570 6.52337
143589 5.72918
143607 5.26644
143626 4.96821
143662 4.60976
143699 4.39886
143736 4.25613
143809 4.06226
143883 3.91939
143957 3.79412
144104 3.53968
144251 3.21466
144324 2.99233
144398 2.69656
144471 2.27369
144508 1.98490
144545 1.61913
144582 1.14752
144618 0.563375
144637 0.263232
144655 0.0600263
144664 0.0681009
144674 0.234643
144683 0.681364
144692 1.59263
144697 2.35315
144702 3.36742
144711 6.27013
144730 14.5699
144740 17.6544
144749 18.7510
144768 17.2051
144783 15.1206
144798 13.3167
144813 11.9026
144828 10.8175
144859 9.29560
144889 8.30822
144919 7.62395
144949 7.12846
145009 6.46365
145069 6.05394
145100 5.91844
145130 5.83411
145160 5.83427
145175 5.89824
145190 6.05251
145205 6.40561
145213 6.73621
145220 7.27524
145228 8.22936
145235 10.0307
145239 11.5982
145243 13.9043
145246 17.5907
145250 23.1913
145255 34.3535
145260 41.8669
145265 34.8166
145270 24.0490
145275 16.4834
145281 12.4602
145286 10.1825
145291 8.80264
145297 7.89847
145302 7.29626
145313 6.55035
145323 6.11649
145334 5.84253
145355 5.51564
145376 5.32480
145398 5.19730
145440 5.02908
145483 4.92550
145525 4.90770
145546 4.99951
145557 5.11963
145568 5.35313
145578 5.83942
145584 6.27186
145589 6.94939
145594 8.06457
145599 10.0149
145605 13.6632
145610 20.7820
145615 32.2119
145620 41.3776
145625 35.8339
145630 25.2910
145634 19.1246
145638 15.2293
145642 12.6336
145646 10.9336
145654 8.86114
145662 7.71720
145671 7.01737
145679 6.55498
145695 5.99330
145711 5.67038
145727 5.46225
145760 5.20943
145792 5.05760
145824 4.95357
145889 4.81144
145954 4.70915
146018 4.61969
146083 4.51815
146115 4.46335
146132 4.58127
146136 4.77108
146140 5.29607
146142 5.92649
146144 7.25205
146145 8.48711
146146 10.4977
146147 13.9211
146148 20.0213
146149 31.4688
146150 39.8487
146151 34.9561
146152 24.4047
146153 19.6767
146154 16.3088
146155 12.1366
146157 9.72866
146158 8.41177
146161 6.95168
146164 6.24758
146169 5.56582
146175 5.25363
146187 4.96739
146198 4.83694
146221 4.71039
146244 4.64491
146290 4.56882
146335 4.51751
146427 4.42743
146473 4.36300
146496 4.32412
146507 4.42581
146510 4.58770
146513 5.03037
146514 5.61431
146516 6.79453
146517 9.73564
146518 12.9114
146518 19.5903
146519 29.6255
146520 38.8953
146521 33.0601
146522 23.7412
146522 16.0792
146523 12.3131
146525 8.59160
146527 7.05040
146528 6.26807
146532 5.52298
146535 5.18927
146542 4.87741
146549 4.73942
146562 4.61110
146576 4.54999
146630 4.45286
146737 4.37884
146845 4.33193
146953 4.29359
147169 4.22910
147385 4.17380
147817 4.07655
148033 4.02697
148140 3.99375
148194 3.96895
148221 3.97664
148235 4.13768
148238 4.32556
148242 4.80478
148243 5.38652
148245 6.63625
148247 9.88652
148248 13.2949
148248 19.8342
148249 30.7752
148250 38.2292
148251 32.7818
148252 22.3995
148253 15.0792
148254 11.2828
148255 7.79346
148257 6.34655
148259 5.61663
148263 4.91908
148266 4.61807
148274 4.35124
148281 4.23668
148295 4.13647
148310 4.09162
148368 4.02696
148485 3.98379
148719 3.93303
148952 3.88678
149069 3.86294
149128 3.87208
149142 3.90006
149157 3.99275
149164 4.12165
149171 4.44607
149175 4.82034
149179 5.55805
149182 7.28304
149184 9.03979
149186 12.0439
149188 17.3985
149190 21.4149
149192 18.3704
149194 13.2351
149196 10.5896
149197 8.72833
149200 6.72926
149204 5.72196
149207 5.18544
149213 4.63749
149219 4.38110
149232 4.15176
149245 4.05196
149270 3.96434
149295 3.92487
149345 3.88631
149396 3.86515
149597 3.81689
150000 3.74797
150293 3.69969
150440 3.67875
150513 3.70106
150531 3.74103
150550 3.86519
150559 4.03739
150568 4.47537
150572 4.99856
150577 6.13821
150579 7.26552
150582 9.24634
150584 13.0326
150586 20.4122
150588 31.1438
150590 38.4242
150592 32.1456
150594 21.6765
150596 15.4511
150597 11.7823
150599 9.41963
150601 8.00244
150604 6.34280
150608 5.50481
150615 4.68400
150622 4.32461
150636 4.01416
150649 3.88517
150677 3.77685
150705 3.73036
150761 3.68693
150816 3.66395
150927 3.63473
151039 3.61269
151261 3.57520
151483 3.54234
151706 3.51633
151817 3.50898
151928 3.50991
152039 3.52819
152095 3.55062
152151 3.59097
152206 3.66774
152234 3.73422
152262 3.83976
152290 4.02790
152304 4.18768
152317 4.44024
152331 4.88785
152338 5.26586
152345 5.83976
152352 6.81830
152359 8.64721
152363 10.2724
152366 12.7442
152370 16.9420
152373 23.7753
152377 34.1664
152380 39.2149
152384 29.8842
152387 18.8383
152390 12.6528
152394 9.16991
152397 7.16408
152400 5.95231
152406 4.67789
152413 4.09507
152419 3.78970
152425 3.62445
152438 3.47504
152464 3.42909
152489 3.47900
152540 3.67707
152591 4.01516
152642 4.63867
152692 5.94288
152718 7.17190
152743 9.18559
152769 12.6610
152794 18.7947
152822 29.7201
152850 38.3608
152878 32.9967
152906 22.8958
152937 15.4988
152967 11.3990
152998 9.03201
153029 7.57880
153059 6.62058
153090 5.95694
153151 5.10285
153213 4.56503
153274 4.14316
153305 3.91813
153335 3.61433
153351 3.37723
153366 2.99109
153374 2.67049
153381 2.17462
153389 1.34422
153393 0.948130
153395 1.12223
153396 2.45148
153397 3.96196
153398 6.44317
153400 13.3439
153401 15.7670
153402 16.5287
153404 15.0083
153406 11.6721
153409 9.51378
153412 8.22794
153415 7.42848
153421 6.44571
153427 5.89963
153438 5.29842
153450 4.97438
153473 4.62419
153496 4.43022
153519 4.30168
153542 4.20727
153588 4.07261
153680 3.90295
153771 3.79195
153955 3.64350
154139 3.54080
154323 3.45964
154507 3.38906
154691 3.32153
154783 3.29506
154806 3.30089
154829 3.34288
154841 3.41379
154852 3.61347
154858 3.86311
154864 4.40685
154866 4.95660
154869 5.88114
154872 7.68372
154875 11.1138
154878 16.4482
154880 20.2464
154883 17.2384
154885 12.3657
154887 9.85088
154889 8.22493
154892 6.27439
154896 5.27800
154899 4.72517
154906 4.14264
154913 3.86173
154927 3.60298
154941 3.48845
154968 3.38398
154996 3.33411
155051 3.27926
155107 3.24239
155217 3.16859
155273 3.10530
155300 3.06842
155314 3.20229
155318 3.39965
155321 3.92640
155323 4.59208
155325 5.90529
155326 9.00298
155327 12.3874
155328 17.5735
155329 28.3557
155330 36.2404
155331 31.7679
155332 21.8696
155333 15.0496
155334 11.2091
155336 8.80361
155337 7.45651
155339 5.89165
155341 5.09426
155346 4.33203
155350 3.98732
155359 3.66917
155369 3.52537
155387 3.39217
155405 3.32930
155442 3.26554
155478 3.23050
155551 3.18712
155624 3.15651
155770 3.10769
155916 3.06495
156500 2.90481
156792 2.82238
157084 2.73436
157376 2.63337
157522 2.56506
157595 2.51195
157631 2.49518
157640 2.52353
157649 2.64957
157654 2.84863
157658 3.36873
157661 3.99156
157663 5.29554
157664 6.57848
157665 8.49652
157666 11.6992
157667 17.2639
157669 27.3472
157670 35.3515
157671 30.1196
157673 20.6538
157674 14.9411
157675 11.3783
157676 8.95305
157677 7.51245
157679 5.75221
157682 4.84772
157686 3.91331
157691 3.48841
157700 3.09945
157709 2.92681
157727 2.77115
157745 2.69894
157782 2.62703
157818 2.58750
157891 2.53693
157964 2.49934
158254 2.37470
158545 2.25247
158836 2.12234
159418 1.82544
160000 1.46308
160593 1.00779
161185 0.471525
161481 0.211890
161629 0.108662
161704 0.0705228
161778 0.0455541
161852 0.0378544
161926 0.0527649
162000 0.0970021
162074 0.178916
162148 0.309410
162222 0.501497
162296 0.772437
162370 1.14248
162471 1.86139
162573 2.93694
162623 3.70745
162648 4.20672
162674 4.84884
162699 5.76744
162724 7.32526
162737 8.65008
162750 10.7292
162762 14.3217
162775 20.7466
162788 31.1099
162800 38.9346
162813 33.6681
162825 24.4007
162834 19.8279
162842 16.7362
162860 13.2860
162877 11.6893
162894 10.9366
162928 10.5177
162963 10.7011
163031 11.6583
163100 12.8219
163283 15.3980
163465 16.4272
163830 15.2192
164145 13.3079
164459 11.6580
164616 10.9729
164773 10.3748
164852 10.1136
164891 9.99942
164931 9.90764
164970 9.86745
164990 9.89264
165009 9.98690
165029 10.2379
165039 10.4884
165048 10.9111
165058 11.6794
165068 13.1782
165073 14.4931
165078 16.5218
165083 19.7565
165088 24.9490
165094 34.8280
165100 41.6216
165106 35.5199
165112 25.9932
165117 20.5349
165122 17.1635
165128 14.9768
165133 13.5631
165143 11.8762
165153 10.9663
165163 10.4038
165173 10.0276
165193 9.55192
165213 9.25327
165233 9.09134
165243 9.13145
165253 9.47212
165258 9.98754
165263 11.1247
165266 12.1978
165268 13.9292
165271 16.8059
165273 21.6265
165277 32.0908
165280 41.6168
165283 38.1480
165287 29.1664
165289 23.9430
165292 20.4698
165294 17.9814
165296 16.3031
165301 14.1311
165306 12.8643
165311 12.0557
165316 11.5024
165326 10.8019
165336 10.3791
165345 10.0952
165365 9.73258
165385 9.50345
165404 9.33936
165443 9.10696
165483 8.93812
165522 8.80158
165600 8.57937
165679 8.39435
165757 8.23090
165914 7.94378
166071 7.68925
166227 7.45196
166384 7.22023
166423 7.17402
166462 7.17987
166482 7.26515
166492 7.37225
166502 7.57925
166511 8.00509
166516 8.38686
166521 8.98593
166526 9.97327
166531 11.7010
166536 14.9290
166541 21.0234
166545 31.0822
166550 38.9670
166555 34.2309
166559 25.2352
166564 19.4234
166568 15.8206
166572 13.5666
166576 12.1240
166584 10.3896
166593 9.46412
166601 8.89733
166609 8.52942
166626 8.08007
166643 7.82064
166660 7.65182
166693 7.44212
166726 7.31216
166760 7.21936
166826 7.08647
166893 6.98700
166960 6.90421
167094 6.76488
167227 6.64513
167361 6.53756
167628 6.34651
167895 6.17770
168162 6.02306
168429 5.86987
168563 5.77735
168629 5.72199
168646 5.72101
168663 5.77363
168671 5.88249
168680 6.21099
168684 6.63799
168688 7.57460
168690 8.52990
168692 10.2094
168694 13.3828
168696 19.5352
168698 29.2512
168700 36.7485
168702 32.0422
168704 23.0021
168705 18.6560
168706 15.5139
168709 11.9098
168712 9.93674
168714 8.83929
168719 7.65897
168724 7.08894
168734 6.54501
168744 6.30099
168765 6.07777
168785 5.97469
168825 5.87245
168866 5.81696
168947 5.74800
169028 5.69872
169190 5.61966
169352 5.55127
169676 5.42839
170000 5.31549
170632 5.10612
170947 4.99954
171026 4.97527
171105 4.96320
171145 4.97658
171184 5.04725
171204 5.15891
171224 5.46298
171233 5.84012
171238 6.16869
171243 6.68472
171248 7.57497
171253 9.18563
171256 10.5542
171258 12.4834
171261 15.5065
171263 19.8674
171267 29.3965
171270 35.8265
171274 29.8386
171277 20.7671
171280 15.6418
171283 12.4243
171286 10.3881
171289 9.09020
171294 7.51378
171300 6.68878
171306 6.19168
171312 5.87909
171323 5.51381
171335 5.31350
171346 5.19133
171369 5.05329
171415 4.93043
171461 4.87878
171507 4.87717
171530 4.91168
171553 5.00169
171576 5.22463
171587 5.44776
171598 5.82422
171610 6.51328
171621 7.86556
171627 9.07387
171633 10.8979
171639 13.7669
171644 18.3018
171652 28.0283
171660 35.9394
171668 31.4858
171676 22.6270
171681 18.1721
171686 15.0829
171697 11.3571
171707 9.36835
171718 8.20203
171728 7.46127
171738 6.96016
171759 6.34021
171780 5.98042
171801 5.74923
171842 5.47273
171884 5.31360
171926 5.20932
172009 5.07738
172092 4.99276
172175 4.92977
172342 4.83230
172674 4.66084
172841 4.56828
172882 4.56686
172924 4.65044
172945 4.81560
172955 4.98861
172966 5.29390
172976 5.87044
172986 7.07128
172992 8.17337
172997 9.93534
173002 12.8587
173007 17.7710
173014 27.4182
173020 35.3576
173026 31.0805
173033 22.3552
173039 16.5704
173045 13.0802
173051 10.9059
173057 9.49018
173068 7.83777
173080 6.94767
173092 6.40679
173104 6.05580
173127 5.63212
173151 5.38927
173175 5.23445
173222 5.04754
173269 4.93773
173317 4.86381
173411 4.76617
173506 4.69979
173600 4.64791
173790 4.56403
174168 4.42155
174546 4.27501
174925 4.09283
175114 3.97197
175303 3.81175
175492 3.57647
175587 3.40618
175682 3.17167
175776 2.82348
175824 2.57613
175871 2.24850
175918 1.79820
175942 1.50724
175965 1.16335
176013 0.357563
176025 0.201298
176036 0.152830
176048 0.344709
176054 0.603956
176060 1.03249
176065 1.58570
176070 2.33738
176080 4.61058
176100 11.6102
176110 14.4703
176120 15.7213
176140 14.9275
176158 13.1756
176176 11.6366
176194 10.4498
176213 9.54940
176249 8.31507
176285 7.52921
176321 6.98889
176357 6.59819
176429 6.06964
176502 5.72845
176574 5.48860
176719 5.16914
176863 4.95948
177008 4.80299
177153 4.66430
177225 4.58196
177261 4.54978
177279 4.69926
177284 4.89464
177288 5.41088
177290 6.02143
177293 7.19594
177295 10.0325
177296 12.7371
177297 17.4999
177299 26.7104
177300 33.8278
177301 29.4947
177303 20.9540
177304 14.7880
177306 11.3081
177308 9.33833
177309 8.20137
177312 6.88942
177315 6.21589
177322 5.56826
177328 5.26902
177340 4.99461
177353 4.87013
177378 4.75061
177402 4.68958
177452 4.62000
177502 4.57499
177602 4.50919
177701 4.45643
177900 4.36641
178100 4.28445
178298 4.19748
178398 4.13588
178448 4.09204
178472 4.13441
178479 4.22779
178485 4.51825
178488 4.89456
178491 5.74927
178493 6.64362
178494 8.11430
178496 11.0848
178497 16.9452
178499 26.0989
178500 33.1883
178501 28.9050
178503 20.4280
178504 14.5962
178506 11.1719
178507 9.17784
178509 7.94250
178512 6.56878
178515 5.86219
178521 5.18327
178527 4.87090
178539 4.58892
178551 4.46275
178575 4.34833
178599 4.29650
178647 4.25257
178695 4.24774
178743 4.28504
178767 4.33316
178791 4.42192
178815 4.59763
178827 4.75271
178839 4.99769
178851 5.41508
178863 6.20633
178869 6.89090
178875 7.94571
178881 9.63816
178886 12.3208
178893 16.7565
178900 19.2145
178907 15.5461
178914 10.8036
178918 8.62995
178923 7.21176
178932 5.67380
178942 4.93613
178951 4.55241
178970 4.20654
178988 4.10657
179007 4.16516
179026 4.47965
179035 4.85965
179044 5.57168
179054 6.99301
179063 9.94591
179072 14.8685
179080 19.2209
179089 17.5235
179097 13.3317
179104 10.6927
179111 8.94742
179118 7.79648
179125 7.02273
179140 6.06674
179154 5.52560
179168 5.18707
179182 4.95892
179210 4.67492
179238 4.50637
179267 4.39557
179323 4.25686
179379 4.17092
179436 4.11020
179549 4.02410
179662 3.95982
179774 3.90543
180000 3.80861
180309 3.68106
180618 3.54361
180773 3.46653
180928 3.38276
181005 3.34322
181082 3.32947
181121 3.36835
181140 3.42543
181160 3.54341
181179 3.80198
181189 4.04790
181198 4.44916
181208 5.16428
181217 6.52912
181222 7.73137
181227 9.51832
181232 12.2921
181237 16.6126
181243 25.7358
181250 32.5608
181257 27.7108
181263 19.2536
181270 13.2757
181277 9.94202
181284 7.97072
181291 6.76654
181298 5.96240
181305 5.41353
181319 4.71367
181333 4.29842
181347 4.02561
181374 3.68359
181402 3.45757
181430 3.27018
181458 3.14970
181465 3.21980
181472 3.53998
181475 3.99380
181479 4.97092
181480 5.95611
181482 7.47746
181484 10.0146
181486 14.5903
181488 24.0140
181490 32.5295
181492 29.4596
181494 21.4006
181497 15.1718
181499 11.6527
181501 9.52212
181504 8.15772
181508 6.57981
181513 5.72906
181522 4.86010
181531 4.43844
181550 4.02388
181568 3.81788
181605 3.60327
181642 3.48351
181716 3.33661
181790 3.23561
181938 3.07733
182086 2.93545
182382 2.63950
182678 2.28249
182974 1.81506
183122 1.52100
183270 1.17673
183418 0.783106
183566 0.380476
183640 0.223040
183677 0.175750
183714 0.164293
183751 0.205612
183788 0.323265
183825 0.549410
183862 0.925292
183894 1.41887
183927 2.10545
183991 4.20806
184120 10.7751
184185 13.4643
184249 14.6758
184378 13.9695
184532 11.8299
184686 10.1166
184763 9.45332
184841 8.88661
184918 8.39818
184937 8.30418
184956 8.28156
184966 8.37119
184975 8.71726
184980 9.17336
184985 10.1721
184987 11.1242
184990 12.6989
184992 15.4270
184995 20.4440
184997 29.1878
185000 36.4845
185003 32.2091
185005 24.1491
185007 19.7557
185009 16.8486
185011 14.7738
185013 13.4072
185017 11.6565
185021 10.6570
185029 9.60787
185036 9.08661
185052 8.56065
185068 8.29050
185099 7.98146
185130 7.78185
185192 7.49178
185254 7.26441
185378 6.89830
185503 6.60459
185751 6.14933
186000 5.80625
186498 5.30780
186995 4.94278
187492 4.64103
187990 4.36290
188238 4.22231
188487 4.07297
188612 3.99105
188736 3.89883
188860 3.78453
188922 3.74023
188938 3.77088
188953 3.92102
188961 4.15374
188969 4.74165
188973 5.40184
188977 6.68495
188979 7.82755
188981 9.46893
188983 11.9853
188984 15.9019
188987 24.5606
188990 31.5930
188993 27.4619
188996 19.4956
188998 15.4495
189000 12.5205
189002 10.5260
189003 9.19706
189007 7.47712
189011 6.48841
189019 5.44499
189027 4.94026
189043 4.46143
189058 4.23948
189090 4.02844
189121 3.92193
189184 3.80058
189247 3.71962
189372 3.59079
189498 3.47241
189749 3.22472
190000 2.93542
190332 2.43949
190498 2.11751
190665 1.72487
190831 1.24463
190997 0.684958
191080 0.409195
191121 0.292253
191163 0.206025
191205 0.171897
191246 0.222632
191288 0.406591
191308 0.569847
191329 0.793547
191359 1.25553
191389 1.91439
191450 3.98414
191570 10.7098
191630 13.5869
191691 14.9790
191811 14.4962
191952 12.4852
192093 10.8137
192234 9.61260
192374 8.74591
192515 8.09860
192656 7.59809
192938 6.86502
193219 6.32623
193501 5.84780
193642 5.57505
193712 5.40721
193783 5.19471
193853 4.89425
193888 4.68125
193924 4.39080
193959 3.96204
193976 3.65770
193994 3.25367
194012 2.69467
194029 1.89261
194047 0.800694
194056 0.364441
194060 0.402757
194064 0.900831
194068 2.06738
194072 4.30983
194080 11.8820
194084 15.2601
194088 17.0119
194096 16.7614
194105 14.6278
194114 12.8212
194123 11.5055
194133 10.5692
194142 9.86897
194151 9.34039
194170 8.59084
194188 8.08473
194207 7.72196
194243 7.23601
194280 6.92092
194317 6.69821
194391 6.39595
194465 6.19074
194539 6.03098
194613 5.88651
194650 5.84196
194659 5.87495
194668 6.02703
194673 6.25532
194677 6.83124
194680 7.46330
194682 8.67512
194684 11.2614
194686 13.7752
194687 17.6045
194688 25.7343
194690 32.5653
194692 28.3895
194693 20.8432
194694 17.1955
194696 14.5067
194698 11.3919
194700 9.70317
194702 8.70356
194706 7.63265
194710 7.09681
194719 6.58765
194727 6.35162
194744 6.12971
194761 6.02257
194794 5.90869
194828 5.84127
194896 5.75096
194963 5.68409
195098 5.57906
195232 5.49382
195502 5.35470
195771 5.24055
196311 5.05423
196850 4.89986
197389 4.76181
197928 4.62827
198197 4.55837
198467 4.48302
198602 4.44520
198736 4.42442
198804 4.44941
198837 4.49310
198871 4.58903
198905 4.80837
198922 5.02125
198938 5.37476
198955 6.00800
198972 7.22809
198981 8.27683
198989 9.85696
198997 12.2957
199006 16.0696
199018 24.4597
199030 31.1578
199042 27.2125
199054 19.6000
199062 16.0727
199069 13.5065
199084 10.3124
199099 8.55344
199114 7.50191
199128 6.82605
199143 6.36537
199173 5.79336
199202 5.45861
199232 5.24392
199291 4.98667
199350 4.83892
199409 4.74233
199527 4.62048
199645 4.54264
199764 4.48507
200000 4.39787
200222 4.33160
200443 4.27176
200886 4.15841
201329 4.04274
201773 3.91544
202216 3.76472
202659 3.56601
202880 3.42806
202991 3.33931
203102 3.22685
203213 3.07064
203268 2.96219
203323 2.81621
203379 2.60144
203407 2.44736
203434 2.23818
203462 1.93547
203490 1.45967
203504 1.10974
203517 0.663536
203531 0.209684
203538 0.192711
203545 0.816631
203549 1.79560
203553 3.52498
203560 8.78392
203564 10.9408
203568 11.8897
203575 11.2885
203585 9.42559
203595 8.02009
203604 7.05915
203614 6.40062
203624 5.92032
203634 5.56355
203653 5.06506
203673 4.73215
203692 4.49527
203731 4.17444
203770 3.96290
203809 3.80823
203886 3.58497
203964 3.41639
204042 3.26857
204120 3.11731
204159 3.03482
204178 3.06287
204188 3.42783
204190 3.79646
204193 4.59207
204195 6.71098
204196 9.15618
204198 14.1792
204199 21.7468
204200 28.2038
204201 24.1530
204202 17.0821
204204 11.2662
204205 8.23060
204208 5.66186
204211 4.65745
204214 4.16011
204220 3.69115
204226 3.47472
204238 3.27135
204250 3.17073
204298 2.98749
204394 2.78166
204490 2.59110
204586 2.38450
204682 2.14797
204778 1.87014
204874 1.57149
204898 1.53979
204922 1.64521
204934 1.87303
204946 2.48910
204952 3.16617
204958 4.43113
204964 6.98578
204967 9.20280
204970 12.3155
204975 20.5009
204980 27.0712
204985 23.3256
204990 16.0175
204996 10.4125
205001 7.35558
205007 5.58511
205013 4.48484
205018 3.75446
205024 3.24181
205035 2.57692
205046 2.16186
205058 1.87864
205080 1.49903
205102 1.23739
205125 1.03313
205170 0.709101
205215 0.461949
205259 0.316075
205282 0.305718
205304 0.360880
205327 0.508104
205349 0.783107
205369 1.17802
205389 1.74854
205430 3.56374
205510 9.55140
205550 12.1536
205591 13.4442
205671 13.0931
205738 11.8393
205805 10.6514
205873 9.68756
205940 8.93018
206074 7.85175
206208 7.13782
206343 6.63496
206477 6.26195
206746 5.74251
207014 5.39141
207283 5.12805
207551 4.90215
207686 4.79213
207719 4.78140
207753 4.83579
207770 4.95897
207786 5.33006
207795 5.78671
207803 6.75334
207807 7.65257
207812 9.10754
207816 11.5566
207820 15.6119
207825 23.7218
207830 30.2983
207835 26.7056
207840 19.5392
207845 14.6184
207850 11.6653
207855 9.86488
207860 8.71086
207865 7.93251
207870 7.38367
207879 6.68389
207889 6.26020
207899 5.98506
207918 5.65949
207938 5.47899
207957 5.37167
207997 5.27192
208036 5.28162
208055 5.33750
208075 5.45262
208094 5.68327
208114 6.17724
208124 6.65163
208133 7.45474
208143 8.91527
208153 11.6451
208162 15.4214
208170 17.6138
208179 14.6698
208187 10.7556
208196 8.20655
208205 6.86446
208214 6.12717
208223 5.69638
208242 5.23929
208260 5.02149
208296 4.82522
208332 4.73901
208405 4.65805
208477 4.61762
208550 4.59864
208622 4.61493
208659 4.66071
208695 4.79416
208713 4.95966
208731 5.32822
208740 5.70686
208749 6.39200
208754 6.97369
208758 7.81291
208763 9.07634
208767 10.9782
208774 14.8013
208780 17.2735
208786 14.6079
208793 10.7339
208800 8.05606
208807 6.68484
208814 5.93484
208821 5.49302
208835 5.02913
208849 4.80602
208877 4.60592
208905 4.51955
208961 4.44271
209017 4.40549
209129 4.36365
209241 4.34027
209353 4.33392
209465 4.36094
209521 4.40612
209577 4.51587
209605 4.63922
209633 4.90567
209647 5.18442
209661 5.73864
209668 6.25545
209675 7.13148
209682 8.76170
209686 10.1057
209689 11.9900
209695 15.7356
209700 17.4675
209705 13.8934
209711 9.69182
209715 7.47912
209720 6.24331
209724 5.52004
209729 5.07883
209738 4.60956
209747 4.39742
209765 4.23425
209783 4.18987
209819 4.19302
209855 4.23194
209928 4.36006
210000 4.58314
210000 5.91373
225000 5.81746
250000 5.67346
275000 5.54627
300000 5.43265
350000 5.20703
400000 5.01917
500000 4.67943
600000 4.39320
700000 4.15074
800000 3.94634
882211 3.81013
897563 3.78660
897563 3.78659
900000 3.78292
925000 3.74673
950000 3.71183
975000 3.67815
1.00000E+06 3.64562
1.08371E+06 3.54773
1.08371E+06 3.54773
1.10000E+06 3.52986
1.20000E+06 3.42739
1.21281E+06 3.41736
1.30000E+06 3.35249
1.33454E+06 3.32831
1.40000E+06 3.28461
1.50000E+06 3.22265
1.57642E+06 3.18740
1.60000E+06 3.17694
1.70000E+06 3.13459
1.78447E+06 3.10112
1.78448E+06 3.10111
1.78448E+06 3.10110
1.80000E+06 3.09517
1.81227E+06 3.09052
1.81227E+06 3.09052
1.90000E+06 3.05835
1.91277E+06 3.05382
1.98594E+06 3.02855
1.98594E+06 3.02855
2.00000E+06 3.02382
2.17128E+06 3.01887
2.25000E+06 3.01673
2.40926E+06 3.01263
2.50000E+06 3.01041
2.75000E+06 3.11697
3.00000E+06 3.21754
3.50000E+06 3.46297
4.00000E+06 3.64346
4.50000E+06 3.76490
5.00000E+06 3.85185
5.50000E+06 3.91164
5.88993E+06 3.93889
5.99249E+06 3.94579
6.00000E+06 3.94629
6.06959E+06 3.94808
6.12172E+06 3.94940
6.13603E+06 3.94976
6.21525E+06 3.95175
6.26415E+06 3.95297
6.40323E+06 3.95638
6.50000E+06 3.95871
6.52709E+06 3.95841
6.59769E+06 3.95764
6.60652E+06 3.95755
7.00000E+06 3.95341
7.50000E+06 3.93487
8.00000E+06 3.90611
8.50000E+06 3.86863
9.00000E+06 3.82307
9.02112E+06 3.82076
9.35096E+06 3.78559
9.50000E+06 3.77021
1.00000E+07 3.71146
1.01329E+07 3.69360
1.02519E+07 3.67787
1.03500E+07 3.66509
1.04717E+07 3.64947
1.05000E+07 3.64587
1.06036E+07 3.63281
1.07566E+07 3.61384
1.10000E+07 3.58441
1.10330E+07 3.57988
1.11188E+07 3.56819
1.12778E+07 3.54685
1.15000E+07 3.51775
1.16523E+07 3.49826
1.17650E+07 3.48406
1.20000E+07 3.45508
1.25000E+07 3.39076
1.30000E+07 3.33009
1.31477E+07 3.31182
1.35000E+07 3.26946
1.40000E+07 3.21208
1.45000E+07 3.15614
1.50000E+07 3.10303
1.55000E+07 3.05239
1.59265E+07 3.01110
1.59266E+07 3.01109
1.60000E+07 3.00415
1.65000E+07 2.95859
1.70000E+07 2.91504
1.73805E+07 2.88363
1.75000E+07 2.87398
1.80000E+07 2.83463
1.85000E+07 2.79822
1.90000E+07 2.76324
1.95000E+07 2.73206
2.00000E+07 2.70201