Se-78(n,g) ENDF/B-VII.1
Energy(eV) XS(b)
1.00000E-05 21.6276
1.25000E-05 19.3443
1.50000E-05 17.6589
2.00000E-05 15.2930
2.75000E-05 13.0419
3.50000E-05 11.5604
4.25000E-05 10.4909
5.00000E-05 9.67216
6.25000E-05 8.65104
7.50000E-05 7.89728
0.000100000 6.83925
0.000125000 6.11721
0.000150000 5.58422
0.000200000 4.83608
0.000275000 4.12422
0.000350000 3.65573
0.000425000 3.31752
0.000500000 3.05861
0.000625000 2.73570
0.000750000 2.49734
0.00100000 2.16276
0.00125000 1.93443
0.00150000 1.76589
0.00200000 1.52930
0.00275000 1.30420
0.00350000 1.15605
0.00425000 1.04910
0.00500000 0.967219
0.00625000 0.865107
0.00750000 0.789732
0.0100000 0.683929
0.0125000 0.611726
0.0150000 0.558427
0.0200000 0.483614
0.0253000 0.429986
0.0314750 0.385508
0.0376500 0.352481
0.0500000 0.305870
0.0625000 0.273580
0.0750000 0.249745
0.100000 0.216289
0.125000 0.193458
0.150000 0.176605
0.200000 0.152949
0.275000 0.130441
0.350000 0.115629
0.500000 0.0967508
0.750000 0.0790088
1.00000 0.0684341
1.50000 0.0558934
2.00000 0.0484201
2.75000 0.0413122
3.50000 0.0366368
5.00000 0.0306823
7.50000 0.0250939
10.0000 0.0217697
15.0000 0.0178406
20.0000 0.0155119
27.5000 0.0133152
35.0000 0.0118884
50.0000 0.0101152
75.0000 0.00856133
100.000 0.00777839
150.000 0.00734400
200.000 0.00813750
245.683 0.0107054
268.525 0.0135126
291.367 0.0187777
302.787 0.0232677
314.208 0.0301704
325.629 0.0415631
337.050 0.0623818
342.760 0.0799646
348.471 0.106894
354.181 0.151233
359.891 0.232099
362.747 0.300286
365.602 0.404541
368.457 0.575740
371.312 0.886616
372.740 1.14749
374.167 1.54433
375.595 2.19126
377.023 3.35311
377.380 3.78941
377.736 4.31702
377.915 4.62332
378.093 4.96329
378.272 5.34248
378.450 5.76666
378.629 6.24379
378.807 6.78245
378.986 7.39437
379.164 8.09264
379.343 8.89522
379.521 9.82285
379.699 10.9041
379.878 12.1734
380.235 15.4797
380.592 20.3374
380.949 27.8869
381.127 33.3361
381.305 40.5352
381.484 50.3250
381.662 64.0775
381.841 84.2369
382.019 115.327
382.198 166.612
382.376 258.551
382.465 333.368
382.555 441.281
382.644 600.228
382.733 833.721
382.867 1332.17
383.000 1663.39
383.134 1329.26
383.268 829.678
383.382 546.916
383.496 374.493
383.610 268.031
383.724 199.584
383.952 121.559
384.180 81.1741
384.408 57.8392
384.636 43.2198
385.092 26.6872
385.548 18.0748
386.004 13.0367
386.460 9.84072
386.916 7.68871
387.828 5.06107
388.740 3.58018
389.652 2.66465
390.564 2.05970
392.388 1.33528
394.212 0.934846
396.036 0.690588
397.860 0.530765
401.507 0.341355
405.155 0.237749
408.803 0.175027
412.451 0.134224
419.747 0.0861685
427.043 0.0600600
434.338 0.0443349
441.634 0.0341472
456.226 0.0222038
470.817 0.0157465
485.409 0.0118703
500.000 0.00936429
521.867 0.00699365
543.735 0.00552881
587.469 0.00388680
631.204 0.00303908
674.938 0.00256129
718.673 0.00231469
762.407 0.00234915
784.275 0.00264003
806.142 0.00366264
817.076 0.00517384
822.543 0.00671267
828.009 0.00955719
833.476 0.0157046
836.210 0.0218714
838.943 0.0331751
840.310 0.0427401
841.676 0.0574016
843.043 0.0815398
844.410 0.125490
845.093 0.162450
845.776 0.218751
846.460 0.310703
847.143 0.476141
847.485 0.613637
847.827 0.820710
848.168 1.15354
848.510 1.73854
848.681 2.21376
848.852 2.91288
849.022 4.00276
849.193 5.83392
849.364 9.26187
849.450 12.2102
849.535 16.7839
849.620 24.3804
849.706 38.1593
849.748 49.4848
849.791 66.0114
849.834 90.6792
849.877 127.467
849.938 204.060
850.000 255.031
850.062 203.936
850.124 127.480
850.197 72.0825
850.270 44.1359
850.343 29.2427
850.416 20.6226
850.490 15.2584
850.563 11.7181
850.709 7.50989
850.855 5.20816
851.002 3.81903
851.295 2.30206
851.587 1.53651
851.880 1.09784
852.173 0.823388
852.465 0.640399
853.051 0.419229
853.636 0.295814
854.222 0.219992
854.807 0.170119
855.978 0.110648
857.149 0.0778951
858.320 0.0579562
859.491 0.0449231
861.833 0.0294823
864.175 0.0210305
868.858 0.0125634
873.542 0.00861193
878.225 0.00645055
887.593 0.00428093
906.327 0.00269648
925.062 0.00211583
962.531 0.00166146
1000.00 0.00147158
1087.47 0.00128009
1174.94 0.00122514
1218.67 0.00126026
1262.41 0.00143659
1284.27 0.00171299
1306.14 0.00252835
1317.08 0.00368013
1328.01 0.00697245
1333.48 0.0115667
1336.21 0.0161694
1338.94 0.0245962
1341.68 0.0426524
1343.04 0.0606386
1344.41 0.0933521
1345.09 0.120895
1345.78 0.162795
1346.46 0.231188
1347.14 0.354190
1347.48 0.456528
1347.83 0.610675
1348.17 0.858486
1348.51 1.29264
1348.68 1.64587
1348.85 2.16582
1349.02 2.97587
1349.19 4.32705
1349.36 6.86344
1349.45 9.05922
1349.53 12.4217
1349.62 18.0653
1349.71 28.1513
1349.75 36.5070
1349.79 48.3446
1349.83 66.3068
1349.88 92.2312
1349.94 147.705
1350.00 183.770
1350.06 146.772
1350.13 91.5049
1350.17 66.8231
1350.21 49.7336
1350.29 29.8408
1350.37 19.4254
1350.44 13.5942
1350.52 9.96865
1350.60 7.62950
1350.76 4.86609
1350.92 3.35804
1351.08 2.45394
1351.40 1.47451
1351.71 0.981237
1352.03 0.700287
1352.35 0.524784
1352.67 0.407901
1353.30 0.266649
1353.94 0.187962
1354.57 0.139691
1355.20 0.108006
1356.47 0.0701976
1357.74 0.0494108
1360.28 0.0284992
1362.82 0.0187116
1365.36 0.0133603
1370.44 0.00800407
1380.59 0.00414735
1390.74 0.00278681
1411.05 0.00180652
1431.36 0.00145900
1512.60 0.00111790
1675.06 0.00107412
1837.53 0.00130877
1878.15 0.00151205
1918.77 0.00197161
1939.08 0.00246596
1959.38 0.00346213
1979.69 0.00599265
1989.85 0.00906793
2000.00 0.0162381
2006.70 0.0279370
2010.06 0.0396349
2013.41 0.0610183
2015.08 0.0790820
2016.76 0.106725
2018.44 0.152142
2020.11 0.234533
2020.95 0.303645
2021.79 0.408653
2022.62 0.579488
2023.46 0.885241
2023.88 1.13794
2024.30 1.51649
2024.72 2.12049
2025.14 3.17133
2025.56 5.24526
2025.77 7.14033
2025.98 10.2485
2026.19 15.9183
2026.29 20.6520
2026.40 27.6879
2026.50 38.9561
2026.60 57.8711
2026.71 92.7213
2026.81 158.497
2026.91 253.826
2027.00 316.342
2027.09 252.735
2027.19 157.650
2027.28 98.3398
2027.37 64.8565
2027.46 45.1949
2027.55 33.0121
2027.64 24.9811
2027.73 19.5591
2027.91 12.8714
2028.09 9.06782
2028.27 6.73268
2028.63 4.11884
2028.99 2.77437
2029.35 1.99413
2029.72 1.50185
2030.08 1.17160
2030.80 0.769999
2031.52 0.544472
2032.24 0.405357
2032.96 0.313557
2034.41 0.203773
2035.85 0.143132
2037.30 0.106146
2038.74 0.0819390
2041.63 0.0532279
2044.52 0.0374983
2050.29 0.0217413
2056.07 0.0143960
2061.84 0.0103904
2073.39 0.00639564
2096.50 0.00354543
2119.60 0.00256595
2142.70 0.00213505
2165.80 0.00192646
2212.01 0.00180412
2258.21 0.00192384
2304.42 0.00244019
2327.52 0.00317299
2350.62 0.00523869
2362.17 0.00810311
2367.95 0.0109694
2373.72 0.0162211
2379.50 0.0274959
2382.39 0.0387595
2385.27 0.0593292
2386.72 0.0766921
2388.16 0.103243
2389.61 0.146820
2391.05 0.225825
2391.77 0.291978
2392.49 0.392357
2393.22 0.555367
2393.94 0.846345
2394.30 1.08620
2394.66 1.44457
2395.02 2.01435
2395.38 3.00058
2395.74 4.93133
2395.92 6.68110
2396.10 9.52190
2396.28 14.6355
2396.37 18.8160
2396.46 24.9992
2396.55 34.6112
2396.64 50.4546
2396.73 78.2261
2396.82 128.478
2396.91 205.617
2397.00 257.060
2397.09 205.611
2397.18 128.477
2397.28 73.8900
2397.38 45.7720
2397.48 30.5582
2397.58 21.7304
2397.68 16.1303
2397.78 12.4475
2397.98 8.01283
2398.18 5.57415
2398.38 4.09618
2398.79 2.47555
2399.19 1.65512
2399.59 1.18379
2399.99 0.888473
2400.39 0.691372
2401.20 0.452713
2402.00 0.319585
2402.81 0.237747
2403.61 0.183878
2405.22 0.119591
2406.83 0.0841985
2410.04 0.0485554
2413.26 0.0318707
2416.48 0.0227445
2422.91 0.0136178
2429.35 0.00937507
2435.78 0.00706813
2448.65 0.00478217
2474.38 0.00318912
2500.12 0.00268475
2551.59 0.00246077
2603.06 0.00256511
2706.01 0.00321709
2808.95 0.00457050
2860.42 0.00573141
2911.89 0.00750933
2963.36 0.0104232
3014.83 0.0156898
3040.57 0.0200881
3066.31 0.0267483
3092.04 0.0375409
3117.78 0.0567621
3130.65 0.0725809
3143.51 0.0961873
3149.95 0.112613
3153.16 0.122463
3156.38 0.133673
3159.60 0.146504
3162.82 0.161284
3164.42 0.169534
3166.03 0.178429
3167.64 0.188051
3169.25 0.198468
3172.47 0.222090
3175.68 0.250198
3178.90 0.283998
3182.12 0.325128
3185.33 0.375853
3188.55 0.439380
3191.77 0.520358
3194.99 0.625722
3198.20 0.766158
3201.42 0.958768
3204.64 1.23214
3207.85 1.63649
3211.07 2.26518
3214.29 3.30177
3217.50 5.11958
3219.11 6.52590
3220.72 8.40875
3223.86 13.4446
3227.00 16.7846
3230.14 13.4110
3233.28 8.37642
3235.70 5.74062
3238.11 4.05331
3240.53 2.96787
3242.94 2.24792
3247.78 1.40054
3252.61 0.948619
3257.44 0.682342
3262.27 0.513338
3271.93 0.319803
3281.60 0.217817
3291.26 0.157723
3300.92 0.119415
3310.58 0.0935262
3329.91 0.0618194
3349.24 0.0438974
3368.56 0.0328001
3387.89 0.0254616
3426.54 0.0166763
3465.19 0.0118307
3503.84 0.00889045
3542.49 0.00698668
3619.80 0.00481667
3697.10 0.00390093
3735.75 0.00393796
3774.41 0.00489734
3793.73 0.00655481
3803.39 0.00829188
3813.06 0.0115354
3822.72 0.0185761
3827.55 0.0256430
3832.38 0.0385781
3834.80 0.0495071
3837.22 0.0662288
3839.63 0.0936873
3842.05 0.143463
3843.25 0.185165
3844.46 0.248455
3845.67 0.351260
3846.88 0.534622
3847.48 0.685891
3848.09 0.911949
3848.69 1.27146
3849.29 1.89398
3849.90 3.11344
3850.20 4.21550
3850.50 6.01602
3850.80 9.24147
3850.95 11.8947
3851.11 15.8270
3851.26 21.9566
3851.41 32.0977
3851.56 49.9610
3851.71 82.1818
3851.85 131.400
3852.00 164.169
3852.15 131.031
3852.29 81.8959
3852.39 59.4474
3852.48 44.1502
3852.67 26.1921
3852.86 17.0075
3853.05 11.8339
3853.24 8.67356
3853.43 6.61525
3853.80 4.20360
3854.18 2.89759
3854.56 2.11594
3855.32 1.26944
3856.07 0.844714
3856.83 0.602637
3857.58 0.451600
3858.34 0.351100
3859.85 0.229837
3861.36 0.162350
3862.87 0.120928
3864.38 0.0937234
3867.40 0.0613076
3870.42 0.0434709
3873.44 0.0326176
3876.46 0.0255243
3882.51 0.0171173
3888.55 0.0125108
3900.63 0.00788055
3912.72 0.00570259
3924.80 0.00449756
3948.97 0.00326040
3997.31 0.00229998
4045.64 0.00190777
4142.32 0.00156455
4238.99 0.00142951
4335.67 0.00141150
4432.34 0.00156479
4480.68 0.00182470
4504.85 0.00209059
4529.02 0.00257992
4553.19 0.00363184
4565.27 0.00468430
4577.36 0.00661214
4583.40 0.00824470
4589.44 0.0107500
4595.48 0.0148841
4601.53 0.0224417
4604.55 0.0288245
4607.57 0.0385938
4610.59 0.0546502
4613.61 0.0838239
4615.12 0.108318
4616.63 0.145546
4618.14 0.206243
4619.65 0.315043
4620.41 0.405303
4621.16 0.540664
4621.92 0.757308
4622.67 1.13594
4623.43 1.89009
4623.81 2.58329
4624.00 3.08125
4624.18 3.73284
4624.37 4.61789
4624.56 5.85369
4624.75 7.64850
4624.84 8.85712
4624.94 10.3675
4625.03 12.3080
4625.13 14.7925
4625.22 18.1073
4625.32 22.5314
4625.41 28.7029
4625.51 37.3149
4625.60 49.6215
4625.69 67.1115
4625.85 107.410
4626.00 133.997
4626.08 126.088
4626.15 107.124
4626.31 66.8864
4626.49 37.7479
4626.67 23.1415
4626.86 15.3148
4627.04 10.8106
4627.22 7.99186
4627.40 6.14195
4627.77 3.93481
4628.13 2.72873
4628.50 2.00085
4629.23 1.20583
4629.96 0.804827
4630.69 0.574995
4631.42 0.431232
4632.15 0.335506
4633.61 0.219668
4635.07 0.155042
4636.53 0.115358
4637.99 0.0892739
4640.91 0.0581631
4643.83 0.0410448
4646.75 0.0306268
4649.66 0.0238238
4655.50 0.0157711
4661.34 0.0113704
4667.18 0.00870699
4673.02 0.00697443
4684.70 0.00493421
4696.38 0.00382671
4719.73 0.00273240
4743.09 0.00223605
4766.44 0.00197678
4813.15 0.00174591
4906.58 0.00166960
5000.00 0.00176735
5168.00 0.00219153
5335.99 0.00308043
5419.99 0.00392832
5503.99 0.00560281
5545.99 0.00740124
5566.99 0.00899892
5587.99 0.0117214
5608.99 0.0172275
5619.49 0.0225486
5629.99 0.0320790
5635.24 0.0400194
5640.49 0.0520519
5645.74 0.0716072
5650.99 0.106641
5653.61 0.135663
5656.24 0.179262
5658.86 0.249135
5660.17 0.301079
5661.49 0.371532
5662.80 0.470597
5663.46 0.535851
5664.11 0.615825
5664.77 0.715449
5665.42 0.841270
5666.08 1.00353
5666.74 1.21763
5667.39 1.50851
5668.05 1.91571
5668.71 2.51015
5669.36 3.42299
5670.02 4.91758
5670.67 7.57149
5671.00 9.70689
5671.33 12.7614
5671.66 17.2106
5671.99 23.6678
5672.49 37.8771
5673.00 47.3210
5673.51 37.8391
5674.02 23.6598
5674.47 15.2645
5674.93 10.2885
5675.38 7.27549
5675.84 5.37409
5676.75 3.23836
5677.66 2.15051
5678.57 1.52711
5679.48 1.13946
5681.30 0.703412
5683.12 0.477532
5684.94 0.345872
5686.76 0.262564
5688.58 0.206568
5692.23 0.138363
5695.87 0.100024
5699.51 0.0763839
5703.15 0.0608071
5710.44 0.0422539
5717.72 0.0321096
5732.29 0.0221322
5746.86 0.0177655
5761.43 0.0156806
5790.56 0.0144115
5848.84 0.0165498
5877.97 0.0191264
5907.11 0.0228687
5921.68 0.0253083
5928.96 0.0267054
5936.25 0.0282388
5943.53 0.0299248
5950.81 0.0317825
5958.10 0.0338343
5965.38 0.0361065
5972.67 0.0386307
5979.95 0.0414430
5987.23 0.0445878
5994.52 0.0481180
6009.09 0.0566035
6023.65 0.0675975
6038.22 0.0821663
6052.79 0.101991
6067.36 0.129838
6081.93 0.170469
6096.50 0.232487
6111.06 0.332147
6125.63 0.500779
6132.92 0.627168
6140.20 0.792368
6155.60 1.26489
6171.00 1.57559
6186.40 1.25672
6201.80 0.784498
6212.01 0.565673
6222.22 0.416501
6242.63 0.244641
6263.05 0.157880
6283.47 0.109437
6303.89 0.0800321
6324.30 0.0609755
6365.14 0.0387347
6405.97 0.0268243
6446.80 0.0197633
6528.47 0.0123073
6610.14 0.00900602
6691.81 0.00835184
6732.64 0.00971189
6753.06 0.0114943
6773.47 0.0150272
6793.89 0.0228610
6804.10 0.0307115
6814.31 0.0449268
6819.41 0.0567746
6824.52 0.0746348
6829.62 0.103358
6834.72 0.153868
6839.83 0.255198
6842.38 0.349142
6844.93 0.506946
6846.21 0.629351
6846.85 0.707811
6847.48 0.801799
6848.12 0.915630
6848.76 1.05520
6849.40 1.22871
6850.04 1.44781
6850.67 1.72942
6851.31 2.09876
6851.95 2.59431
6852.59 3.27644
6853.23 4.24191
6853.86 5.64729
6854.50 7.73855
6855.14 10.8464
6856.07 17.3506
6857.00 21.6838
6857.47 20.4065
6857.93 17.3447
6858.86 10.8407
6859.44 7.96903
6860.02 5.96359
6861.18 3.58657
6862.34 2.34869
6863.50 1.64421
6864.66 1.21023
6865.82 0.926312
6868.14 0.591123
6870.46 0.409317
6872.77 0.300130
6877.41 0.181398
6882.05 0.121748
6886.69 0.0876381
6891.33 0.0663302
6895.96 0.0521378
6905.24 0.0349863
6914.51 0.0254050
6923.79 0.0195043
6933.07 0.0156079
6951.62 0.0109255
6970.17 0.00830727
7007.27 0.00559168
7044.37 0.00424543
7081.47 0.00345504
7155.68 0.00256954
7304.09 0.00176842
7452.49 0.00139260
7749.31 0.00106833
8046.13 0.00101689
8342.94 0.00121210
8491.35 0.00147278
8639.76 0.00197589
8788.17 0.00305975
8862.37 0.00412530
8936.57 0.00602888
8973.68 0.00759895
9010.78 0.00994696
9047.88 0.0136867
9084.98 0.0201810
9122.08 0.0329725
9131.36 0.0381281
9140.64 0.0446082
9145.27 0.0484911
9149.91 0.0529062
9154.55 0.0579546
9159.19 0.0637604
9163.82 0.0704844
9168.46 0.0783260
9173.10 0.0875433
9177.74 0.0984689
9182.38 0.111549
9187.01 0.127371
9191.65 0.146733
9196.29 0.170731
9200.93 0.200917
9205.56 0.239484
9210.20 0.289620
9214.84 0.355995
9219.48 0.445581
9224.12 0.568552
9228.75 0.739105
9233.39 0.973817
9241.70 1.55667
9250.00 1.94332
9254.15 1.82787
9258.31 1.55306
9266.61 0.970348
9272.34 0.690899
9278.07 0.503352
9283.80 0.377598
9289.53 0.291375
9300.99 0.186392
9312.45 0.128478
9323.91 0.0935970
9335.37 0.0711118
9358.28 0.0449827
9381.20 0.0310205
9404.12 0.0227215
9449.96 0.0137901
9495.80 0.00935584
9541.63 0.00684833
9587.47 0.00530178
9633.31 0.00428820
9724.98 0.00310544
9816.65 0.00249963
10000.0 0.00205592
10127.5 0.00208619
10255.0 0.00235279
10382.5 0.00293599
10510.0 0.00408481
10637.5 0.00651141
10701.3 0.00881427
10765.0 0.0127455
10828.8 0.0202441
10844.7 0.0231850
10852.7 0.0249041
10860.6 0.0268226
10868.6 0.0289723
10876.6 0.0313912
10884.5 0.0341251
10892.5 0.0372260
10900.5 0.0407703
10908.4 0.0448393
10916.4 0.0495386
10924.4 0.0550012
10932.4 0.0613953
10940.3 0.0689360
10956.3 0.0886348
10972.2 0.117520
10988.1 0.161489
11004.1 0.230697
11020.0 0.340224
11040.0 0.542604
11060.0 0.675843
11070.0 0.635482
11080.0 0.540055
11100.0 0.337757
11114.1 0.239059
11128.1 0.173324
11142.2 0.129519
11156.3 0.0996328
11184.4 0.0634364
11212.5 0.0435871
11240.6 0.0316731
11268.8 0.0240153
11325.0 0.0151363
11381.3 0.0104019
11437.5 0.00759003
11493.8 0.00578702
11550.0 0.00456283
11662.5 0.00305516
11775.0 0.00219708
11887.5 0.00166229
12000.0 0.00130634
12000.0 0.185184
15000.0 0.161276
17000.0 0.148873
20000.0 0.133556
25000.0 0.114102
30000.0 0.100423
35000.0 0.0902281
40000.0 0.0821830
50000.0 0.0701064
60000.0 0.0624430
70000.0 0.0577183
80000.0 0.0537011
99999.9 0.0482928
100000 0.0481543
150000 0.0418308
200000 0.0396032
250000 0.0390167
300000 0.0391955
500000 0.0418194
560873 0.0428346
621746 0.0437660
660873 0.0324684
700000 0.0245045
750000 0.0226295
800000 0.0210057
850000 0.0204179
900000 0.0198788
950000 0.0197585
1.00000E+06 0.0196450
1.06250E+06 0.0200155
1.12500E+06 0.0203713
1.18750E+06 0.0207136
1.25000E+06 0.0210437
1.32554E+06 0.0217211
1.32554E+06 0.0217211
1.36916E+06 0.0209598
1.41277E+06 0.0202479
1.45639E+06 0.0195807
1.50000E+06 0.0189542
1.51800E+06 0.0189284
1.51800E+06 0.0189284
1.52205E+06 0.0188222
1.52205E+06 0.0188222
1.57904E+06 0.0179423
1.63603E+06 0.0171326
1.69301E+06 0.0163853
1.75000E+06 0.0156938
1.78147E+06 0.0156587
1.82974E+06 0.0155879
1.87800E+06 0.0155193
1.87800E+06 0.0155193
1.93900E+06 0.0150997
2.00000E+06 0.0147039
2.02184E+06 0.0146656
2.07365E+06 0.0143264
2.12546E+06 0.0140032
2.12546E+06 0.0140032
2.16826E+06 0.0137526
2.21106E+06 0.0135113
2.25385E+06 0.0132788
2.29665E+06 0.0130545
2.29665E+06 0.0130545
2.32957E+06 0.0128001
2.32957E+06 0.0128001
2.35743E+06 0.0126019
2.36492E+06 0.0124853
2.36492E+06 0.0124853
2.39075E+06 0.0122559
2.39076E+06 0.0122559
2.46541E+06 0.0118208
2.54006E+06 0.0114134
2.54006E+06 0.0114134
2.57025E+06 0.0112197
2.57156E+06 0.0112054
2.57157E+06 0.0112054
2.62672E+06 0.0108759
2.68187E+06 0.0105626
2.68188E+06 0.0105626
2.71479E+06 0.0104381
2.71480E+06 0.0104381
2.71682E+06 0.0104198
2.71682E+06 0.0104198
2.75440E+06 0.0102307
2.75440E+06 0.0102307
2.78317E+06 0.0100504
2.83738E+06 0.00977006
2.89159E+06 0.00950263
2.94579E+06 0.00924727
3.00000E+06 0.00900326
3.06931E+06 0.00868247
3.13861E+06 0.00837991
3.20792E+06 0.00809416
3.27723E+06 0.00782395
3.34653E+06 0.00756813
3.41584E+06 0.00732567
3.48514E+06 0.00709562
3.55445E+06 0.00687711
3.61014E+06 0.00670935
3.66584E+06 0.00654816
3.72153E+06 0.00639318
3.77723E+06 0.00624409
3.83292E+06 0.00610059
3.88861E+06 0.00596238
3.94431E+06 0.00582921
4.00000E+06 0.00570081
4.12500E+06 0.00539900
4.25000E+06 0.00512148
4.37500E+06 0.00486566
4.50000E+06 0.00462930
4.62500E+06 0.00441043
4.75000E+06 0.00420735
4.87500E+06 0.00401853
5.00000E+06 0.00384265
5.06250E+06 0.00374239
5.12500E+06 0.00364593
5.18750E+06 0.00355309
5.25000E+06 0.00346367
5.31250E+06 0.00337753
5.37500E+06 0.00329450
5.43750E+06 0.00321443
5.50000E+06 0.00313719
5.56250E+06 0.00306265
5.62500E+06 0.00299068
5.68750E+06 0.00292118
5.75000E+06 0.00285402
5.81250E+06 0.00278910
5.87500E+06 0.00272634
5.93750E+06 0.00266563
6.00000E+06 0.00260688
6.10936E+06 0.00247706
6.32445E+06 0.00224614
6.53954E+06 0.00204343
6.76585E+06 0.00185598
7.00000E+06 0.00168572
7.05941E+06 0.00163690
7.11881E+06 0.00158988
7.17822E+06 0.00154459
7.23762E+06 0.00150095
7.29904E+06 0.00145748
7.36047E+06 0.00141562
7.42189E+06 0.00137529
7.48331E+06 0.00133643
7.54682E+06 0.00129772
7.61033E+06 0.00126045
7.67383E+06 0.00122454
7.73734E+06 0.00118994
7.80301E+06 0.00115548
7.86867E+06 0.00112229
7.93434E+06 0.00109032
8.00000E+06 0.00105951
8.05104E+06 0.00103569
8.10209E+06 0.00101256
8.15313E+06 0.000990076
8.20417E+06 0.000968231
8.27445E+06 0.000939153
8.34473E+06 0.000911183
8.41500E+06 0.000884271
8.48528E+06 0.000858367
8.54867E+06 0.000838236
8.61207E+06 0.000818721
8.67546E+06 0.000799799
8.73885E+06 0.000781447
8.80414E+06 0.000763120
8.86943E+06 0.000745354
8.93471E+06 0.000728127
9.00000E+06 0.000711419
9.01521E+06 0.000709219
9.03043E+06 0.000707030
9.04564E+06 0.000704851
9.06085E+06 0.000702683
9.07607E+06 0.000700524
9.09128E+06 0.000698377
9.10650E+06 0.000696239
9.12171E+06 0.000694111
9.13692E+06 0.000691993
9.15214E+06 0.000689886
9.16735E+06 0.000687788
9.18256E+06 0.000685700
9.19778E+06 0.000683622
9.21299E+06 0.000681553
9.22820E+06 0.000679494
9.24342E+06 0.000677445
9.25863E+06 0.000675406
9.27384E+06 0.000673375
9.28906E+06 0.000671355
9.30427E+06 0.000669343
9.31948E+06 0.000667341
9.33470E+06 0.000665348
9.34991E+06 0.000663364
9.36512E+06 0.000661390
9.38034E+06 0.000659424
9.39555E+06 0.000657468
9.41076E+06 0.000655520
9.42598E+06 0.000653582
9.44119E+06 0.000651652
9.45640E+06 0.000649731
9.47162E+06 0.000647819
9.48683E+06 0.000645915
9.50287E+06 0.000644913
9.51890E+06 0.000643914
9.53494E+06 0.000642919
9.55098E+06 0.000641926
9.56701E+06 0.000640937
9.58305E+06 0.000639951
9.59909E+06 0.000638968
9.61512E+06 0.000637989
9.63116E+06 0.000637012
9.64720E+06 0.000636039
9.66323E+06 0.000635068
9.67927E+06 0.000634101
9.69531E+06 0.000633137
9.71134E+06 0.000632176
9.72738E+06 0.000631218
9.74342E+06 0.000630263
9.75945E+06 0.000629311
9.77549E+06 0.000628362
9.79153E+06 0.000627416
9.80756E+06 0.000626472
9.82360E+06 0.000625532
9.83964E+06 0.000624595
9.85567E+06 0.000623661
9.87171E+06 0.000622730
9.88775E+06 0.000621801
9.90378E+06 0.000620876
9.91982E+06 0.000619953
9.93585E+06 0.000619033
9.95189E+06 0.000618116
9.96793E+06 0.000617202
9.98396E+06 0.000616291
1.00000E+07 0.000615382
1.00610E+07 0.000618525
1.01220E+07 0.000621664
1.01830E+07 0.000624799
1.02441E+07 0.000627932
1.03051E+07 0.000631063
1.03661E+07 0.000634189
1.04271E+07 0.000637313
1.04881E+07 0.000640434
1.05442E+07 0.000647722
1.05908E+07 0.000653809
1.06374E+07 0.000659926
1.06375E+07 0.000659934
1.07247E+07 0.000671471
1.08120E+07 0.000683113
1.09060E+07 0.000695772
1.10000E+07 0.000708554
1.11914E+07 0.000751627
1.13829E+07 0.000796518
1.15743E+07 0.000843276
1.17657E+07 0.000891942
1.17804E+07 0.000895746
1.17950E+07 0.000899560
1.18096E+07 0.000903387
1.18243E+07 0.000907223
1.18389E+07 0.000911074
1.18536E+07 0.000914933
1.18682E+07 0.000918804
1.18829E+07 0.000922687
1.18975E+07 0.000926583
1.19121E+07 0.000930489
1.19268E+07 0.000934409
1.19414E+07 0.000938338
1.19561E+07 0.000942282
1.19707E+07 0.000946234
1.19854E+07 0.000950198
1.20000E+07 0.000954174
1.20305E+07 0.000957164
1.20610E+07 0.000960155
1.20915E+07 0.000963148
1.21220E+07 0.000966143
1.21525E+07 0.000969139
1.21830E+07 0.000972137
1.22135E+07 0.000975137
1.22440E+07 0.000978139
1.22745E+07 0.000981143
1.23050E+07 0.000984148
1.23355E+07 0.000987155
1.23660E+07 0.000990163
1.23965E+07 0.000993174
1.24270E+07 0.000996186
1.24575E+07 0.000999200
1.24880E+07 0.00100222
1.26160E+07 0.00101489
1.27440E+07 0.00102759
1.28720E+07 0.00104033
1.30000E+07 0.00105309
1.30313E+07 0.00105183
1.30625E+07 0.00105058
1.30938E+07 0.00104934
1.31250E+07 0.00104809
1.31563E+07 0.00104685
1.31875E+07 0.00104562
1.32188E+07 0.00104439
1.32500E+07 0.00104317
1.32813E+07 0.00104194
1.33125E+07 0.00104073
1.33438E+07 0.00103952
1.33750E+07 0.00103831
1.34063E+07 0.00103710
1.34375E+07 0.00103590
1.34688E+07 0.00103471
1.35000E+07 0.00103352
1.35313E+07 0.00103233
1.35625E+07 0.00103115
1.35938E+07 0.00102997
1.36250E+07 0.00102879
1.36563E+07 0.00102762
1.36875E+07 0.00102645
1.37188E+07 0.00102529
1.37500E+07 0.00102413
1.37813E+07 0.00102298
1.38125E+07 0.00102183
1.38438E+07 0.00102068
1.38750E+07 0.00101954
1.39063E+07 0.00101840
1.39375E+07 0.00101726
1.39688E+07 0.00101613
1.40000E+07 0.00101500
1.40625E+07 0.00101035
1.41250E+07 0.00100575
1.41875E+07 0.00100119
1.42500E+07 0.000996664
1.43125E+07 0.000992182
1.43750E+07 0.000987739
1.44375E+07 0.000983335
1.45000E+07 0.000978970
1.46250E+07 0.000970353
1.47500E+07 0.000961884
1.48750E+07 0.000953560
1.50000E+07 0.000945376
1.51250E+07 0.000937995
1.52500E+07 0.000930733
1.53750E+07 0.000923584
1.55000E+07 0.000916548
1.56250E+07 0.000909622
1.57500E+07 0.000902802
1.58750E+07 0.000896087
1.60000E+07 0.000889474
1.62500E+07 0.000880457
1.65000E+07 0.000871668
1.67500E+07 0.000863096
1.70000E+07 0.000854734
1.72500E+07 0.000850430
1.75000E+07 0.000846209
1.77500E+07 0.000842068
1.80000E+07 0.000838005
1.80310E+07 0.000837930
1.81565E+07 0.000837627
1.81566E+07 0.000837627
1.85783E+07 0.000836626
1.90000E+07 0.000835648
1.91935E+07 0.000837375
2.00000E+07 0.000844426