Sr-87(n,g) ENDF/B-VII.1
Energy(eV) XS(b)
1.00000E-05 795.859
1.25000E-05 711.839
1.50000E-05 649.818
2.00000E-05 562.760
2.75000E-05 479.925
3.50000E-05 425.409
4.25000E-05 386.054
5.00000E-05 355.925
6.25000E-05 318.351
7.50000E-05 290.615
0.000100000 251.683
0.000125000 225.114
0.000150000 205.503
0.000200000 177.974
0.000275000 151.782
0.000350000 134.545
0.000425000 122.101
0.000500000 112.576
0.000625000 100.696
0.000750000 91.9277
0.00100000 79.6204
0.00125000 71.2224
0.00150000 65.0240
0.00200000 56.3248
0.00275000 48.0497
0.00350000 42.6055
0.00425000 38.6766
0.00500000 35.6698
0.00625000 31.9215
0.00750000 29.1562
0.0100000 25.2777
0.0125000 22.6339
0.0150000 20.6846
0.0200000 17.9529
0.0253000 15.9995
0.0314750 14.3837
0.0376500 13.1875
0.0500000 11.5067
0.0625000 10.3497
0.0750000 9.50127
0.100000 8.32230
0.125000 7.52962
0.150000 6.95379
0.200000 6.16591
0.275000 5.45306
0.350000 5.01879
0.500000 4.54457
0.750000 4.28749
1.00000 4.36929
1.50000 5.29643
2.00000 7.78205
2.35680 11.9254
2.53520 15.8237
2.71360 22.4512
2.89200 35.0817
2.98120 46.1911
3.07040 63.8621
3.15960 94.3619
3.24880 153.223
3.29340 204.902
3.33800 285.447
3.38260 416.343
3.42720 631.853
3.45290 805.664
3.47860 1003.25
3.53000 1244.75
3.58140 988.681
3.63280 613.657
3.67553 406.278
3.71825 278.809
3.76098 199.606
3.80370 148.476
3.88915 90.0295
3.97460 59.7601
4.06005 42.3006
4.14550 31.3953
4.31640 19.1307
4.48730 12.7989
4.65820 9.13025
4.82910 6.82549
5.00000 5.28825
5.31250 3.55386
5.62500 2.55143
5.93750 1.92283
6.25000 1.50408
6.87500 1.00003
7.50000 0.720665
8.12500 0.550098
8.75000 0.438298
10.0000 0.304968
11.2500 0.230768
12.5000 0.184605
15.0000 0.131189
17.5000 0.101457
20.0000 0.0825005
23.8037 0.0639514
27.6073 0.0522389
31.4110 0.0465735
32.3619 0.0479079
33.3128 0.0550349
33.7882 0.0662629
34.0260 0.0776833
34.2637 0.0984390
34.5014 0.141678
34.6203 0.183172
34.7392 0.255358
34.8580 0.397530
34.9175 0.526603
34.9769 0.738424
35.0363 1.12028
35.0660 1.43644
35.0957 1.90776
35.1255 2.64889
35.1552 3.88914
35.1849 6.11202
35.2146 10.2494
35.2423 16.3860
35.2700 20.4834
35.2977 16.3987
35.3254 10.2652
35.3541 6.23207
35.3827 4.01833
35.4114 2.76154
35.4401 2.00163
35.4687 1.51380
35.4974 1.18466
35.5547 0.784271
35.6120 0.560543
35.6694 0.423513
35.7840 0.271686
35.8986 0.194011
36.0133 0.149044
36.2426 0.101632
36.4719 0.0783751
36.7012 0.0651912
37.1597 0.0514005
38.0769 0.0404851
38.9941 0.0358644
42.6627 0.0284974
50.0000 0.0217854
62.5000 0.0152691
75.0000 0.0113736
100.000 0.00708068
125.000 0.00490097
150.000 0.00366104
200.000 0.00242301
260.621 0.00192600
275.776 0.00196880
290.932 0.00225223
298.509 0.00270303
302.298 0.00316633
306.087 0.00402387
309.876 0.00587588
311.770 0.00773234
313.664 0.0111346
314.612 0.0140146
315.559 0.0184324
316.506 0.0257159
317.453 0.0390118
317.927 0.0502244
318.400 0.0673612
318.874 0.0954714
319.348 0.146402
319.584 0.189026
319.821 0.253677
320.058 0.358615
320.295 0.545829
320.413 0.700075
320.532 0.930436
320.650 1.29649
320.768 1.92965
320.887 3.16791
320.946 4.28507
321.005 6.10701
321.064 9.36240
321.094 12.0333
321.124 15.9818
321.153 22.1163
321.183 32.2192
321.212 49.9066
321.242 81.8564
321.257 104.761
321.271 130.929
321.300 163.624
321.329 130.916
321.358 81.8410
321.380 56.4923
321.402 40.1786
321.424 29.5840
321.445 22.5018
321.489 14.1051
321.533 9.59192
321.576 6.91492
321.620 5.21398
321.707 3.25901
321.794 2.22396
321.882 1.61326
321.969 1.22310
322.056 0.958953
322.230 0.634595
322.405 0.450897
322.579 0.336820
322.754 0.261253
323.103 0.170456
323.452 0.120091
323.800 0.0892890
324.149 0.0690911
324.847 0.0450910
325.545 0.0319249
326.243 0.0239328
326.941 0.0187210
328.336 0.0125634
329.732 0.00920468
332.523 0.00585419
335.315 0.00430027
338.106 0.00345611
343.688 0.00261897
354.853 0.00203129
366.019 0.00184156
410.679 0.00181122
455.340 0.00216448
500.000 0.00303670
521.472 0.00405901
526.840 0.00461625
532.207 0.00579483
534.891 0.00720802
536.233 0.00855110
537.575 0.0109466
538.917 0.0159857
539.588 0.0209635
540.259 0.0299903
540.930 0.0491063
541.266 0.0679454
541.601 0.101864
541.937 0.172613
542.105 0.241119
542.272 0.361817
542.356 0.460131
542.440 0.605259
542.524 0.832245
542.608 1.21536
542.692 1.93885
542.734 2.56611
542.775 3.54772
542.817 5.20386
542.859 8.26088
542.880 10.8307
542.901 14.6331
542.922 20.4710
542.943 29.3663
542.972 47.0077
543.000 58.7097
543.029 46.9392
543.057 29.3631
543.083 18.9332
543.108 12.7447
543.134 9.00965
543.159 6.64914
543.211 4.00325
543.262 2.65539
543.313 1.88435
543.364 1.40458
543.467 0.865466
543.569 0.586277
543.671 0.423562
543.774 0.320599
543.876 0.251438
544.081 0.167066
544.286 0.119597
544.695 0.0709350
545.105 0.0477762
545.514 0.0349915
546.333 0.0221136
547.152 0.0161049
547.972 0.0128439
549.610 0.00964825
552.886 0.00754259
556.162 0.00702154
569.268 0.00789969
582.373 0.0104898
595.479 0.0153489
602.031 0.0194269
608.584 0.0256250
615.137 0.0357439
621.689 0.0540366
624.966 0.0693630
628.242 0.0926857
631.518 0.130792
634.795 0.199587
636.433 0.257035
638.071 0.344050
639.709 0.485121
641.347 0.736519
642.167 0.943535
642.986 1.25260
643.805 1.74362
644.624 2.59265
645.033 3.27088
645.443 4.25330
645.852 5.75203
646.262 8.19634
646.672 12.5671
646.876 16.1552
647.081 21.4602
647.286 29.7123
647.491 43.3112
647.695 67.1696
647.900 110.340
648.100 176.554
648.300 220.652
648.500 176.425
648.700 110.214
648.912 65.9747
649.124 42.0349
649.336 28.5953
649.548 20.5338
649.760 15.3899
649.971 11.9328
650.395 7.74739
650.819 5.41928
651.243 3.99831
652.090 2.42971
652.938 1.63104
653.785 1.17075
654.633 0.881893
655.480 0.689027
657.175 0.456072
658.870 0.326829
660.565 0.248691
662.260 0.199060
665.650 0.148309
667.345 0.140981
669.040 0.148476
670.735 0.184800
671.583 0.227624
672.430 0.309985
672.854 0.380821
673.278 0.489768
673.701 0.668820
674.125 0.992013
674.337 1.26089
674.549 1.66580
674.761 2.31611
674.973 3.45705
675.185 5.74089
675.291 7.85382
675.396 11.3892
675.502 17.9719
675.555 23.6039
675.608 32.2689
675.661 46.5603
675.714 72.0888
675.741 92.8290
675.767 122.724
675.794 166.674
675.820 230.816
675.860 369.436
675.900 461.521
675.940 369.033
675.980 230.780
676.010 159.618
676.040 113.669
676.070 83.7824
676.100 63.7794
676.160 40.0060
676.219 27.2394
676.279 19.6633
676.339 14.8427
676.459 9.29860
676.578 6.36207
676.698 4.62801
676.818 3.51898
676.937 2.76862
677.177 1.84657
677.416 1.32397
677.655 0.999337
677.895 0.783946
678.373 0.524708
678.852 0.380463
679.330 0.291856
679.809 0.233438
680.766 0.163354
681.724 0.124246
683.638 0.0838471
685.553 0.0640345
687.467 0.0526422
691.296 0.0405769
698.954 0.0324205
706.613 0.0338469
714.271 0.0456659
718.100 0.0594784
721.929 0.0857017
723.843 0.108095
725.758 0.142435
727.672 0.198788
729.587 0.300694
730.544 0.385768
731.502 0.514491
732.459 0.722797
733.416 1.09292
733.895 1.39684
734.373 1.84917
734.852 2.56494
735.331 3.79579
735.570 4.77375
735.809 6.18253
736.049 8.31567
736.288 11.7605
736.527 17.8263
736.647 22.7320
736.766 29.8736
736.886 40.7630
737.006 58.2044
737.125 87.6416
737.245 138.293
737.373 221.044
737.500 276.091
737.628 220.959
737.755 138.210
737.897 80.8430
738.039 50.6842
738.180 34.1010
738.322 24.3092
738.464 18.1231
738.606 14.0010
738.889 9.04679
739.173 6.31347
739.456 4.65402
740.023 2.83327
740.590 1.91365
741.157 1.38939
741.724 1.06661
742.291 0.859085
743.425 0.645764
743.992 0.616524
744.559 0.652356
745.126 0.814184
745.410 1.00091
745.693 1.35269
745.977 2.09598
746.118 2.81033
746.260 4.04749
746.402 6.46466
746.473 8.63747
746.544 12.1576
746.614 18.4043
746.650 23.4781
746.685 30.9120
746.721 42.3620
746.756 60.8657
746.774 74.4930
746.792 92.5138
746.809 116.464
746.827 148.001
746.845 189.414
746.864 236.722
746.900 295.614
746.918 278.204
746.937 236.444
746.973 147.977
747.000 103.280
747.027 74.0291
747.054 54.8514
747.080 41.9354
747.134 26.5042
747.187 18.1591
747.241 13.1819
747.295 10.0045
747.402 6.33458
747.509 4.38539
747.616 3.22992
747.830 1.98660
748.044 1.36610
748.259 1.01175
748.687 0.640574
749.115 0.457833
749.544 0.352887
750.401 0.240043
751.258 0.181357
752.115 0.145475
753.828 0.103551
755.542 0.0795645
757.256 0.0639371
760.683 0.0448089
764.111 0.0336560
767.538 0.0264589
774.393 0.0179159
781.248 0.0131647
788.103 0.0102217
801.813 0.00687902
815.523 0.00510250
829.233 0.00403961
856.653 0.00289274
884.073 0.00236139
911.493 0.00219376
925.204 0.00229822
938.914 0.00279832
945.769 0.00356264
949.196 0.00434249
952.624 0.00578259
956.051 0.00888952
957.765 0.0120028
959.479 0.0177059
960.335 0.0225314
961.192 0.0299290
962.049 0.0421139
962.906 0.0643184
963.335 0.0830155
963.763 0.111533
964.191 0.158201
964.620 0.242408
964.834 0.312635
965.048 0.418681
965.263 0.589852
965.477 0.892727
965.584 1.14020
965.691 1.50677
965.798 2.08279
965.905 3.06311
966.012 4.93236
966.066 6.57559
966.119 9.17431
966.173 13.6328
966.226 22.0886
966.253 29.3915
966.280 40.5581
966.307 58.2407
966.334 86.3300
966.367 138.246
966.400 172.732
966.433 138.074
966.467 86.3231
966.499 53.4453
966.532 34.9383
966.565 24.1672
966.598 17.5740
966.630 13.2823
966.663 10.3709
966.729 6.79429
966.794 4.78072
966.860 3.54118
966.991 2.16227
967.122 1.45483
967.253 1.04498
967.384 0.786690
967.515 0.613575
967.777 0.403256
968.039 0.285263
968.301 0.212532
968.562 0.164581
969.086 0.107246
969.610 0.0756051
970.134 0.0563135
970.658 0.0436957
971.706 0.0287365
972.754 0.0205480
973.802 0.0155847
974.850 0.0123514
976.946 0.00853529
979.042 0.00645585
983.233 0.00438451
987.425 0.00342696
991.617 0.00291005
1000.00 0.00240707
1022.99 0.00205552
1045.99 0.00207522
1091.97 0.00249320
1137.95 0.00352168
1160.95 0.00482616
1166.69 0.00562107
1172.44 0.00745136
1175.32 0.00976365
1176.75 0.0120052
1178.19 0.0160452
1179.63 0.0246051
1180.35 0.0330971
1181.06 0.0485017
1181.78 0.0811997
1182.14 0.113392
1182.50 0.171327
1182.86 0.292553
1183.04 0.410024
1183.22 0.615791
1183.31 0.784066
1183.40 1.03254
1183.49 1.42131
1183.58 2.06916
1183.67 3.30074
1183.71 4.36903
1183.76 6.03999
1183.80 8.84778
1183.85 14.0290
1183.87 18.4769
1183.89 24.7813
1183.92 34.2797
1183.94 48.5933
1183.97 77.7270
1184.00 97.1409
1184.03 77.7246
1184.06 48.5905
1184.10 27.3839
1184.14 16.7290
1184.17 11.0679
1184.21 7.86689
1184.25 5.81050
1184.28 4.48690
1184.36 2.88217
1184.43 2.00291
1184.50 1.47130
1184.65 0.889638
1184.79 0.594289
1184.94 0.426265
1185.23 0.250823
1185.53 0.165709
1185.82 0.118385
1186.40 0.0701158
1186.99 0.0473087
1187.57 0.0347718
1188.74 0.0222014
1189.91 0.0163671
1191.08 0.0132175
1193.42 0.0101616
1198.10 0.00822573
1202.78 0.00784322
1221.50 0.00945505
1230.86 0.0112467
1240.22 0.0142127
1244.90 0.0168534
1249.58 0.0223118
1251.92 0.0287162
1253.09 0.0347377
1254.26 0.0454051
1255.43 0.0676985
1256.01 0.0896190
1256.60 0.129218
1257.18 0.212594
1257.47 0.294466
1257.77 0.440422
1257.91 0.561937
1258.06 0.742881
1258.21 1.03150
1258.35 1.53347
1258.50 2.52380
1258.57 3.42573
1258.64 4.91168
1258.72 7.60745
1258.75 9.89126
1258.79 13.2272
1258.83 18.6732
1258.84 22.5464
1258.86 27.6594
1258.88 34.9814
1258.90 44.5475
1258.92 57.7611
1258.94 75.8646
1258.95 98.0209
1258.97 121.707
1259.00 150.875
1259.02 141.315
1259.03 120.228
1259.07 75.8601
1259.10 43.9278
1259.14 27.6563
1259.17 18.6707
1259.21 13.3401
1259.25 9.96464
1259.28 7.70848
1259.35 4.99113
1259.43 3.48775
1259.50 2.57296
1259.64 1.56616
1259.79 1.05216
1259.93 0.758787
1260.08 0.574641
1260.22 0.451584
1260.51 0.302184
1260.80 0.219027
1261.09 0.167767
1261.37 0.134191
1261.95 0.0941766
1262.53 0.0722731
1263.68 0.0505650
1264.83 0.0407663
1265.99 0.0357507
1268.29 0.0315513
1272.91 0.0310184
1277.52 0.0340495
1286.75 0.0461012
1295.98 0.0690872
1300.59 0.0882363
1305.21 0.116938
1309.82 0.162685
1314.43 0.242101
1316.74 0.305756
1319.05 0.398308
1321.36 0.540141
1323.66 0.773102
1325.97 1.19390
1327.12 1.54326
1328.28 2.06517
1329.43 2.88943
1330.58 4.27569
1331.74 6.78180
1332.31 8.77466
1332.89 11.4932
1333.95 18.3738
1335.00 22.9400
1336.06 18.3368
1337.11 11.4575
1338.12 7.18438
1339.13 4.73501
1340.15 3.29716
1341.16 2.40749
1342.17 1.82600
1343.18 1.42888
1345.20 0.939397
1347.23 0.662642
1349.25 0.491834
1353.30 0.301487
1357.34 0.203823
1361.39 0.147459
1365.43 0.112258
1369.48 0.0891203
1377.57 0.0632096
1385.67 0.0561364
1389.71 0.0634210
1391.74 0.0739046
1393.76 0.0951998
1395.78 0.143100
1396.79 0.191507
1397.80 0.279609
1398.31 0.353473
1398.82 0.465395
1399.32 0.646576
1399.83 0.967311
1400.08 1.23040
1400.33 1.62096
1400.59 2.23642
1400.84 3.28801
1401.09 5.30525
1401.22 7.09650
1401.35 9.93086
1401.41 12.0561
1401.47 14.8719
1401.54 18.7637
1401.60 24.3250
1401.66 32.5835
1401.72 45.3749
1401.79 65.9772
1401.85 99.5360
1401.93 159.361
1402.00 199.286
1402.08 159.343
1402.15 99.5185
1402.22 61.9790
1402.30 40.6499
1402.37 28.2140
1402.44 20.6341
1402.51 15.6206
1402.59 12.2043
1402.73 8.03031
1402.88 5.65709
1403.02 4.20369
1403.31 2.57722
1403.61 1.74144
1403.90 1.25669
1404.19 0.950944
1404.48 0.746449
1405.06 0.496775
1405.64 0.356708
1406.22 0.270054
1406.80 0.212882
1407.97 0.144182
1409.13 0.106045
1411.46 0.0670731
1413.78 0.0483076
1416.11 0.0376708
1420.76 0.0263247
1425.42 0.0204236
1430.07 0.0167808
1439.37 0.0124275
1457.99 0.00809366
1476.60 0.00585574
1495.21 0.00448484
1513.82 0.00356890
1551.05 0.00244964
1588.27 0.00182224
1625.49 0.00146000
1662.72 0.00135435
1672.02 0.00143530
1681.33 0.00170477
1685.98 0.00206433
1690.64 0.00300706
1692.96 0.00424227
1695.29 0.00760157
1696.45 0.0121537
1697.62 0.0247810
1698.20 0.0419665
1698.78 0.0890008
1699.07 0.151655
1699.36 0.317262
1699.51 0.528124
1699.58 0.722582
1699.65 1.04150
1699.72 1.63707
1699.76 2.13458
1699.80 2.89099
1699.83 4.15653
1699.87 6.31938
1699.91 10.4410
1699.92 13.8887
1699.94 18.7970
1699.97 30.3741
1700.00 37.7886
1700.03 29.9611
1700.06 18.7963
1700.08 13.6622
1700.10 10.2830
1700.13 6.16109
1700.17 4.02631
1700.21 2.81375
1700.24 2.06879
1700.28 1.58163
1700.35 1.01300
1700.43 0.699567
1700.50 0.511687
1700.65 0.308692
1700.94 0.147727
1701.24 0.0868757
1701.83 0.0412469
1702.42 0.0247160
1703.60 0.0127803
1704.78 0.00874562
1707.14 0.00652269
1709.50 0.00710805
1711.86 0.0102447
1713.04 0.0137407
1714.22 0.0202981
1715.40 0.0344851
1715.99 0.0486358
1716.58 0.0743050
1717.17 0.128632
1717.46 0.181950
1717.76 0.277390
1718.05 0.474467
1718.20 0.663890
1718.35 0.991267
1718.49 1.64235
1718.57 2.23715
1718.64 3.20287
1718.71 4.97800
1718.75 6.46116
1718.79 8.61908
1718.82 12.1234
1718.86 18.0747
1718.90 28.9474
1718.92 37.3934
1718.93 48.8995
1718.95 62.9180
1718.97 77.9067
1719.00 97.1080
1719.03 77.9048
1719.07 48.8973
1719.10 29.3475
1719.14 18.9479
1719.17 12.8773
1719.20 9.32048
1719.24 6.97239
1719.27 5.43518
1719.34 3.55540
1719.41 2.48779
1719.48 1.84306
1719.62 1.12223
1719.75 0.751841
1719.89 0.539688
1720.16 0.316702
1720.44 0.207838
1720.71 0.147084
1721.26 0.0849473
1721.81 0.0553944
1722.36 0.0390926
1723.46 0.0226669
1724.55 0.0149524
1725.65 0.0107260
1727.85 0.00647867
1730.04 0.00448823
1732.24 0.00339430
1736.63 0.00228827
1741.02 0.00176225
1745.40 0.00146776
1754.18 0.00116007
1771.74 0.000912859
1789.30 0.000807046
1859.53 0.000677673
1929.77 0.000764038
1964.88 0.00100713
1982.44 0.00139791
1991.22 0.00193103
1995.61 0.00250443
2000.00 0.00370499
2003.23 0.00575791
2004.85 0.00779352
2006.47 0.0115007
2008.08 0.0194210
2008.89 0.0273089
2009.70 0.0416528
2010.51 0.0721620
2010.91 0.102257
2011.32 0.156512
2011.72 0.269858
2011.92 0.379738
2012.13 0.573757
2012.33 0.965799
2012.43 1.33222
2012.53 1.95331
2012.63 3.13011
2012.68 4.16901
2012.73 5.77116
2012.78 8.54332
2012.83 13.6238
2012.86 18.1181
2012.88 24.6398
2012.91 34.7011
2012.93 50.2704
2012.95 64.7383
2012.97 80.2353
2013.00 100.130
2013.03 80.2337
2013.07 50.2685
2013.11 28.5233
2013.14 17.5003
2013.18 11.6089
2013.22 8.26127
2013.26 6.10889
2013.30 4.71924
2013.38 3.03325
2013.45 2.10807
2013.53 1.54815
2013.68 0.934978
2013.84 0.624933
2013.99 0.446953
2014.30 0.261146
2014.61 0.171237
2014.92 0.121032
2015.53 0.0698905
2016.15 0.0456679
2016.76 0.0323610
2018.00 0.0189805
2019.23 0.0127294
2020.46 0.00932722
2022.93 0.00595570
2025.39 0.00442360
2027.86 0.00362450
2032.78 0.00292065
2042.64 0.00274199
2052.50 0.00321670
2062.36 0.00429474
2072.22 0.00654324
2077.15 0.00869419
2082.08 0.0127364
2084.54 0.0167002
2087.01 0.0252428
2088.24 0.0353046
2089.47 0.0611227
2090.09 0.0949929
2090.70 0.186319
2091.01 0.306791
2091.17 0.422107
2091.32 0.623105
2091.47 1.02136
2091.55 1.38591
2091.63 1.99001
2091.70 3.09584
2091.74 4.04090
2091.78 5.43687
2091.82 7.74405
2091.86 11.6341
2091.90 19.1635
2091.92 25.2448
2091.94 34.2166
2091.95 43.8799
2091.97 54.7764
2092.00 68.3586
2092.03 54.7755
2092.06 34.2157
2092.08 25.2440
2092.10 19.1630
2092.14 11.7708
2092.18 7.74412
2092.22 5.48303
2092.26 4.04148
2092.30 3.11658
2092.37 2.01188
2092.45 1.39947
2092.52 1.03463
2092.68 0.632844
2092.83 0.429309
2092.98 0.313725
2093.29 0.193499
2093.90 0.103877
2094.52 0.0724401
2095.74 0.0523496
2096.97 0.0490284
2099.42 0.0586011
2101.87 0.0850929
2103.10 0.108507
2104.32 0.144465
2105.55 0.203129
2106.78 0.307894
2107.39 0.394123
2108.00 0.522691
2108.61 0.726460
2109.23 1.07749
2109.84 1.75950
2110.15 2.37167
2110.45 3.35911
2110.76 5.10921
2110.91 6.52397
2111.07 8.59011
2111.22 11.7477
2111.37 16.8314
2111.53 25.4554
2111.68 40.4218
2111.84 64.6699
2112.00 80.8290
2112.16 64.6584
2112.32 40.4105
2112.44 28.1879
2112.56 20.2443
2112.68 14.9824
2112.79 11.4643
2113.03 7.23389
2113.26 4.94006
2113.50 3.57410
2113.73 2.70031
2114.20 1.69233
2114.67 1.15726
2115.14 0.840409
2115.61 0.637669
2116.08 0.500254
2117.02 0.331389
2117.96 0.235567
2118.90 0.176037
2119.84 0.136583
2121.72 0.0890906
2123.60 0.0627191
2125.48 0.0465752
2127.36 0.0359844
2131.12 0.0233787
2134.88 0.0164527
2138.64 0.0122411
2142.40 0.00949154
2149.92 0.00623731
2157.44 0.00445884
2164.96 0.00338273
2172.47 0.00268345
2187.51 0.00186299
2202.55 0.00142358
2232.62 0.00101455
2262.70 0.000887273
2292.77 0.000963257
2307.81 0.00114541
2315.33 0.00132965
2322.85 0.00165920
2330.37 0.00234458
2334.13 0.00301578
2337.89 0.00422944
2341.65 0.00681017
2343.53 0.00937805
2345.41 0.0140627
2347.29 0.0240816
2348.23 0.0340566
2349.16 0.0521969
2350.10 0.0907590
2350.57 0.128837
2351.04 0.197498
2351.51 0.340987
2351.75 0.480135
2351.98 0.725922
2352.22 1.22284
2352.34 1.69006
2352.45 2.47570
2352.57 3.97931
2352.63 5.29553
2352.69 7.32911
2352.75 10.8333
2352.81 17.2610
2352.84 22.9034
2352.87 31.1155
2352.89 43.7637
2352.92 63.3036
2352.96 101.666
2353.00 126.310
2353.02 118.361
2353.04 100.617
2353.08 63.3009
2353.12 37.3987
2353.16 23.6021
2353.20 15.9521
2353.25 11.4032
2353.29 8.51873
2353.33 6.58896
2353.41 4.28285
2353.50 2.98672
2353.58 2.19846
2353.75 1.33497
2353.92 0.893241
2354.08 0.640371
2354.25 0.481447
2354.42 0.375135
2354.75 0.245953
2355.09 0.173724
2355.42 0.129306
2355.76 0.100135
2356.43 0.0652139
2357.09 0.0460012
2358.43 0.0266558
2359.77 0.0176028
2361.11 0.0126634
2363.79 0.00775513
2366.47 0.00550842
2369.14 0.00432268
2374.50 0.00324473
2379.85 0.00289283
2385.21 0.00288083
2395.92 0.00355670
2401.27 0.00431424
2406.63 0.00554912
2411.98 0.00764538
2417.34 0.0115305
2420.02 0.0148301
2422.69 0.0198913
2425.37 0.0282304
2428.05 0.0434071
2429.39 0.0561697
2430.73 0.0756111
2432.06 0.107352
2433.40 0.164396
2434.07 0.211856
2434.74 0.283209
2435.41 0.397824
2436.08 0.599198
2436.41 0.762860
2436.75 1.00377
2437.08 1.37909
2437.42 2.00756
2437.75 3.18540
2437.92 4.19476
2438.09 5.75743
2438.26 8.36594
2438.34 10.3554
2438.42 13.0596
2438.51 16.9315
2438.59 22.4949
2438.67 30.8652
2438.76 43.1362
2438.88 68.9715
2439.00 86.1729
2439.12 68.9638
2439.24 43.1286
2439.32 31.4718
2439.40 23.4884
2439.55 14.0234
2439.71 9.14146
2439.86 6.39036
2440.02 4.69037
2440.17 3.58667
2440.48 2.28166
2440.79 1.57510
2441.10 1.15127
2441.72 0.690915
2442.34 0.459904
2442.95 0.327931
2443.57 0.245565
2444.19 0.190749
2445.43 0.124591
2446.66 0.0877764
2447.90 0.0651931
2449.13 0.0503513
2451.61 0.0326706
2454.08 0.0229502
2456.55 0.0170365
2459.02 0.0131761
2463.97 0.00860638
2468.91 0.00610831
2473.86 0.00459549
2478.80 0.00361059
2488.69 0.00244926
2498.58 0.00181785
2518.36 0.00119447
2538.14 0.000916367
2557.92 0.000780590
2597.48 0.000709771
2637.04 0.000839566
2656.82 0.00102450
2676.60 0.00139020
2686.49 0.00170836
2696.38 0.00220220
2706.27 0.00302355
2716.16 0.00453404
2721.10 0.00581504
2726.05 0.00778211
2730.99 0.0110284
2735.94 0.0169604
2738.41 0.0219684
2740.88 0.0296247
2743.36 0.0422004
2745.83 0.0650044
2747.07 0.0841286
2748.30 0.113148
2749.54 0.160321
2750.77 0.244657
2751.39 0.314289
2752.01 0.418498
2752.63 0.584558
2753.25 0.872958
2753.86 1.44060
2754.17 1.95625
2754.48 2.80349
2754.64 3.44898
2754.79 4.33428
2754.95 5.60966
2755.10 7.50444
2755.25 10.5145
2755.41 15.5485
2755.56 24.7043
2755.64 31.9416
2755.72 41.8278
2755.86 67.0724
2756.00 83.7633
2756.14 66.8748
2756.28 41.8200
2756.39 28.6441
2756.50 20.2785
2756.61 14.8803
2756.72 11.2891
2756.93 7.03836
2757.15 4.77751
2757.37 3.43749
2757.58 2.58991
2758.02 1.61557
2758.45 1.10145
2758.88 0.798175
2759.31 0.604653
2759.75 0.473748
2760.61 0.313217
2761.48 0.222316
2762.35 0.165927
2763.21 0.128601
2764.94 0.0837218
2766.67 0.0588366
2768.41 0.0436200
2770.14 0.0336479
2773.60 0.0217928
2777.06 0.0152896
2780.53 0.0113405
2783.99 0.00876556
2790.92 0.00572235
2797.85 0.00406168
2804.77 0.00305751
2811.70 0.00240474
2825.55 0.00163638
2839.41 0.00121981
2867.11 0.000810796
2894.82 0.000632398
2922.53 0.000556339
2950.24 0.000577026
2964.09 0.000775535
2971.02 0.00154518
2974.48 0.00453185
2976.21 0.0160038
2977.08 0.0584669
2977.51 0.204078
2977.62 0.332550
2977.73 0.632775
2977.78 0.959178
2977.83 1.60739
2977.89 3.13280
2977.92 4.72036
2977.94 7.57281
2977.97 12.0511
2978.00 15.1510
2978.03 12.0510
2978.06 7.57266
2978.08 5.20857
2978.10 3.67749
2978.14 2.06380
2978.19 1.28323
2978.23 0.875133
2978.32 0.474976
2978.40 0.298029
2978.58 0.147351
2978.75 0.0878478
2979.45 0.0242259
2980.83 0.00671763
2983.61 0.00213413
2989.16 0.000980334
3000.26 0.000751116
3011.36 0.000815971
3022.46 0.00102458
3033.57 0.00151433
3039.12 0.00201413
3044.67 0.00293559
3050.22 0.00492112
3052.99 0.00690816
3055.77 0.0105443
3058.54 0.0183276
3059.93 0.0260739
3061.32 0.0401514
3062.71 0.0700013
3063.40 0.0993961
3064.09 0.152126
3064.79 0.261832
3065.13 0.367578
3065.48 0.553093
3065.83 0.924107
3066.00 1.26825
3066.18 1.84106
3066.35 2.91247
3066.44 3.82995
3066.52 5.22557
3066.61 7.54543
3066.70 11.6351
3066.74 15.0231
3066.78 19.7890
3066.83 26.7521
3066.87 36.8931
3066.90 47.2322
3066.93 59.0531
3067.00 73.8361
3067.07 59.0513
3067.13 36.8911
3067.21 21.1770
3067.28 13.1776
3067.36 8.82546
3067.43 6.27009
3067.51 4.66370
3067.58 3.59567
3067.73 2.31612
3067.88 1.60828
3068.03 1.18250
3068.33 0.715114
3068.64 0.477685
3068.94 0.341760
3069.54 0.199477
3070.14 0.130593
3070.74 0.0921149
3071.94 0.0529266
3073.14 0.0343577
3074.34 0.0241312
3076.75 0.0138424
3079.15 0.00902517
3081.55 0.00639174
3086.36 0.00375761
3091.17 0.00253188
3095.97 0.00186440
3105.59 0.00119996
3115.20 0.000893430
3124.81 0.000728748
3144.04 0.000571610
3182.49 0.000502006
3201.72 0.000594190
3211.33 0.000980204
3216.14 0.00248574
3218.54 0.00832344
3219.74 0.0304031
3220.34 0.109420
3220.64 0.362024
3220.72 0.570509
3220.79 1.02152
3220.87 2.26700
3220.91 3.86322
3220.94 7.25657
3220.97 11.5397
3221.00 14.5010
3221.03 11.5396
3221.06 7.25643
3221.10 3.80405
3221.13 2.23840
3221.21 1.00344
3221.29 0.559023
3221.36 0.354233
3221.67 0.106818
3222.27 0.0296962
3223.49 0.00813683
3225.93 0.00244719
3230.79 0.000994333
3240.53 0.000650530
3260.00 0.000670889
3269.73 0.000801042
3279.47 0.00116820
3284.33 0.00166809
3289.20 0.00306836
3291.63 0.00500394
3294.07 0.0104592
3295.28 0.0179891
3296.50 0.0390524
3297.11 0.0677957
3297.72 0.146442
3298.02 0.250732
3298.33 0.524680
3298.48 0.868951
3298.63 1.70307
3298.71 2.65051
3298.78 4.64237
3298.82 6.55824
3298.86 9.84590
3298.90 15.9579
3298.92 20.9551
3298.93 28.3361
3298.95 36.1720
3298.97 45.0743
3299.00 56.6458
3299.03 45.0738
3299.07 28.3355
3299.09 19.4689
3299.12 13.7566
3299.14 10.0784
3299.17 7.63629
3299.22 4.76153
3299.26 3.25019
3299.31 2.33695
3299.36 1.75771
3299.46 1.09963
3299.66 0.543564
3299.86 0.322837
3300.26 0.151758
3300.66 0.0880669
3301.45 0.0405639
3302.25 0.0233977
3303.84 0.0108863
3305.43 0.00644231
3308.61 0.00324683
3311.79 0.00213344
3318.15 0.00136585
3324.51 0.00113722
3337.23 0.00109931
3349.95 0.00132675
3362.67 0.00192498
3369.04 0.00254072
3375.40 0.00367429
3378.58 0.00463519
3381.76 0.00610955
3384.94 0.00854290
3388.12 0.0129889
3389.71 0.0167459
3391.30 0.0224928
3392.89 0.0319376
3394.48 0.0490981
3395.27 0.0635004
3396.07 0.0854059
3396.86 0.121098
3397.66 0.185126
3398.45 0.317826
3398.85 0.445549
3399.25 0.668287
3399.65 1.11255
3399.85 1.52112
3400.04 2.19694
3400.24 3.44678
3400.34 4.51161
3400.44 6.12012
3400.54 8.75765
3400.64 13.3320
3400.69 16.9985
3400.74 22.0640
3400.79 29.4649
3400.84 39.7897
3400.92 63.7942
3401.00 79.5219
3401.08 63.4753
3401.16 39.7866
3401.24 24.2810
3401.33 15.6863
3401.41 10.7723
3401.49 7.81539
3401.57 5.88296
3401.65 4.58938
3401.81 2.99787
3401.98 2.10121
3402.14 1.55475
3402.47 0.948025
3402.79 0.636590
3403.12 0.457039
3403.45 0.343667
3403.77 0.267982
3404.43 0.175947
3405.08 0.124362
3405.73 0.0925849
3406.38 0.0716645
3407.69 0.0466309
3409.00 0.0328315
3410.30 0.0244180
3411.61 0.0189222
3414.22 0.0124124
3416.83 0.00886301
3419.44 0.00672653
3422.05 0.00535392
3427.27 0.00382011
3432.50 0.00326584
3437.72 0.00455047
3440.33 0.0114503
3441.64 0.0382877
3442.29 0.135269
3442.45 0.225439
3442.62 0.449742
3442.70 0.715186
3442.78 1.29109
3442.82 1.88033
3442.86 2.95563
3442.90 5.14954
3442.92 7.05194
3442.94 10.0197
3442.97 16.0456
3443.00 20.0234
3443.03 16.0455
3443.06 10.0195
3443.09 6.29696
3443.11 4.14579
3443.17 2.10481
3443.23 1.24857
3443.28 0.826384
3443.39 0.434139
3443.50 0.266595
3443.73 0.130094
3443.95 0.0771521
3444.84 0.0218209
3446.61 0.00680222
3450.17 0.00279508
3453.72 0.00196423
3457.27 0.00162799
3464.38 0.00133127
3471.48 0.00119667
3499.91 0.00107959
3528.34 0.00122724
3556.76 0.00161704
3585.19 0.00251015
3599.40 0.00341062
3613.61 0.00505767
3620.72 0.00644885
3627.83 0.00857847
3634.93 0.0120825
3642.04 0.0184620
3645.59 0.0238316
3649.15 0.0320200
3652.70 0.0454164
3656.25 0.0695982
3658.03 0.0897680
3659.80 0.120232
3661.58 0.169464
3663.36 0.256607
3664.25 0.327967
3665.13 0.433667
3666.02 0.599970
3666.91 0.883520
3667.80 1.42661
3668.24 1.90464
3668.69 2.66466
3669.13 3.97246
3669.35 5.00531
3669.58 6.47676
3669.80 8.65313
3670.02 12.0062
3670.24 17.3685
3670.46 26.0271
3670.73 41.6580
3671.00 52.0175
3671.27 41.5889
3671.54 26.0201
3671.72 18.6703
3671.90 13.7110
3672.08 10.3341
3672.26 8.01306
3672.62 5.15419
3672.98 3.56385
3673.34 2.60059
3673.70 1.97701
3674.42 1.25006
3675.15 0.859250
3675.87 0.626206
3676.59 0.476368
3677.31 0.374566
3678.76 0.248814
3680.20 0.177248
3681.64 0.132649
3683.09 0.103037
3685.97 0.0673657
3688.86 0.0475342
3691.75 0.0353891
3694.63 0.0274223
3700.41 0.0179549
3706.18 0.0127748
3711.95 0.00965156
3717.73 0.00764553
3729.27 0.00541427
3740.82 0.00464792
3746.60 0.00496708
3749.48 0.00554191
3752.37 0.00676596
3755.26 0.00959640
3756.70 0.0125027
3758.14 0.0178674
3759.59 0.0294024
3760.31 0.0408864
3761.03 0.0617070
3761.75 0.105715
3762.47 0.225702
3762.83 0.384308
3763.01 0.536224
3763.19 0.798321
3763.38 1.31643
3763.47 1.78388
3763.56 2.54938
3763.65 3.92555
3763.69 5.06174
3763.74 6.75195
3763.78 9.40015
3763.83 13.8134
3763.85 17.2383
3763.87 21.6706
3763.89 27.9956
3763.92 36.1785
3763.96 58.1563
3764.00 72.3544
3764.02 67.8114
3764.04 57.6105
3764.09 36.1774
3764.13 21.9049
3764.17 14.2033
3764.22 9.70371
3764.26 7.03700
3764.30 5.28048
3764.35 4.12011
3764.43 2.68684
3764.52 1.88512
3764.61 1.39372
3764.78 0.851397
3764.95 0.572134
3765.13 0.411537
3765.47 0.242106
3765.82 0.159431
3766.17 0.113245
3766.86 0.0660068
3767.56 0.0435426
3768.25 0.0311584
3769.64 0.0186456
3771.03 0.0127630
3772.42 0.00952792
3775.20 0.00626030
3777.97 0.00470926
3780.75 0.00384265
3786.31 0.00293953
3797.42 0.00222451
3808.53 0.00193999
3852.97 0.00181802
3875.19 0.00211278
3897.41 0.00289519
3908.52 0.00383625
3914.08 0.00470644
3919.63 0.00622272
3925.19 0.00934575
3927.96 0.0123991
3930.74 0.0179138
3932.13 0.0225427
3933.52 0.0296023
3934.91 0.0411713
3936.30 0.0621203
3937.69 0.106364
3938.38 0.149822
3939.07 0.227541
3939.77 0.388491
3940.12 0.542576
3940.46 0.811134
3940.81 1.34272
3940.98 1.83034
3941.16 2.63217
3941.33 4.10452
3941.42 5.34129
3941.50 7.18641
3941.59 10.1714
3941.68 15.3087
3941.72 19.3707
3941.77 24.8893
3941.81 32.6269
3941.85 43.4031
3941.93 69.6401
3942.00 86.8243
3942.08 69.2645
3942.15 43.4005
3942.20 30.7811
3942.25 22.4832
3942.30 16.8119
3942.36 13.0003
3942.46 8.30802
3942.56 5.73985
3942.66 4.17482
3942.77 3.16647
3942.97 1.99922
3943.18 1.37170
3943.38 1.00012
3943.59 0.761303
3943.79 0.598899
3944.20 0.398295
3944.61 0.284217
3945.03 0.213247
3945.44 0.166224
3946.26 0.109493
3947.08 0.0780177
3947.90 0.0587512
3948.72 0.0461172
3950.36 0.0311196
3952.01 0.0229334
3955.29 0.0148284
3958.58 0.0111875
3961.86 0.00934115
3968.43 0.00788235
3981.57 0.00831986
3994.71 0.0113377
4001.28 0.0141619
4007.85 0.0185527
4014.42 0.0257520
4020.99 0.0386266
4024.28 0.0492209
4027.56 0.0650067
4030.85 0.0900014
4034.13 0.133003
4035.77 0.167177
4037.42 0.216409
4039.06 0.291042
4040.70 0.411598
4041.52 0.501781
4042.34 0.624345
4043.16 0.796524
4043.99 1.04783
4044.81 1.43220
4045.63 2.04999
4046.45 3.09716
4047.27 4.91270
4048.14 7.85593
4049.00 9.81639
4049.87 7.85528
4050.73 4.91639
4051.50 3.18764
4052.28 2.16210
4053.05 1.54776
4053.82 1.17101
4054.59 0.947097
4055.37 0.871258
4055.75 0.941303
4056.14 1.24809
4056.33 1.67973
4056.43 2.08637
4056.53 2.75652
4056.62 3.99233
4056.67 5.01338
4056.72 6.54188
4056.77 9.01900
4056.82 13.1286
4056.86 20.5646
4056.91 34.7955
4056.96 55.2720
4057.00 69.1299
4057.04 55.2619
4057.09 34.7762
4057.13 22.0714
4057.17 14.8085
4057.21 10.4160
4057.25 7.75205
4057.34 4.76808
4057.42 3.26826
4057.50 2.41575
4057.59 1.88624
4057.75 1.29173
4057.92 0.977326
4058.08 0.790065
4058.41 0.583219
4059.08 0.403031
4059.74 0.318608
4061.06 0.229876
4062.39 0.179611
4065.04 0.121408
4067.69 0.0884351
4072.99 0.0533588
4078.29 0.0358662
4083.60 0.0258710
4088.90 0.0196378
4099.50 0.0126502
4110.10 0.00920233
4120.71 0.00781313
4126.01 0.00815912
4128.66 0.00894702
4131.31 0.0106924
4133.96 0.0148010
4135.29 0.0190409
4136.61 0.0268849
4137.94 0.0437526
4138.60 0.0605273
4139.26 0.0908819
4139.92 0.154848
4140.26 0.217211
4140.59 0.328132
4140.92 0.555859
4141.08 0.771891
4141.25 1.14114
4141.42 1.86141
4141.50 2.50625
4141.58 3.53297
4141.66 5.35913
4141.75 8.98938
4141.79 12.3209
4141.83 17.5366
4141.85 21.4319
4141.87 26.2819
4141.89 32.9692
4141.91 41.4848
4141.93 53.3071
4141.96 66.5005
4142.00 82.9184
4142.02 78.0975
4142.04 66.4994
4142.09 41.4836
4142.13 25.2052
4142.18 16.1595
4142.23 11.0384
4142.27 8.00218
4142.32 6.00517
4142.36 4.66057
4142.45 3.04246
4142.55 2.12880
4142.64 1.57575
4142.82 0.959663
4143.00 0.645185
4143.19 0.463576
4143.55 0.272963
4143.92 0.180269
4144.28 0.128340
4145.02 0.0752757
4145.75 0.0500816
4146.48 0.0361676
4147.94 0.0221148
4149.41 0.0154871
4150.87 0.0118311
4153.80 0.00811882
4156.73 0.00634526
4159.65 0.00535671
4165.51 0.00438994
4177.22 0.00482277
4180.15 0.00616702
4183.07 0.0102724
4184.54 0.0160750
4186.00 0.0324356
4186.73 0.0548425
4187.46 0.116508
4187.83 0.198713
4188.20 0.416323
4188.38 0.692452
4188.56 1.37097
4188.65 2.16094
4188.75 3.84105
4188.79 5.51586
4188.84 8.39569
4188.88 14.0774
4188.91 18.9115
4188.93 25.7373
4188.96 41.2762
4189.00 51.4865
4189.04 41.2757
4189.07 25.7367
4189.10 17.0210
4189.13 11.6303
4189.17 8.31026
4189.20 6.23633
4189.26 3.78566
4189.32 2.53803
4189.44 1.35273
4189.56 0.839367
4189.81 0.411130
4190.05 0.243948
4190.55 0.115042
4191.04 0.0673354
4192.02 0.0318792
4193.00 0.0191077
4194.96 0.00977750
4196.92 0.00643558
4200.85 0.00397075
4204.77 0.00305351
4212.62 0.00231743
4220.47 0.00199765
4251.88 0.00153274
4314.68 0.00149031
4346.08 0.00182940
4361.78 0.00221082
4377.48 0.00292608
4393.18 0.00446474
4401.03 0.00599338
4408.88 0.00876740
4412.81 0.0110947
4416.73 0.0146336
4420.66 0.0204024
4424.58 0.0307660
4426.55 0.0393707
4428.51 0.0523122
4430.47 0.0731050
4432.43 0.109610
4433.41 0.139254
4434.40 0.182819
4435.38 0.250624
4436.36 0.364455
4436.85 0.452814
4437.34 0.577292
4437.83 0.760195
4438.32 1.04283
4438.81 1.51205
4439.06 1.86830
4439.30 2.35818
4439.55 3.05405
4439.79 4.06212
4440.04 5.55958
4440.28 7.78087
4440.64 12.4520
4441.00 15.5665
4441.36 12.4495
4441.72 7.77843
4441.94 5.74691
4442.16 4.32465
4442.60 2.61818
4443.04 1.72220
4443.47 1.20876
4443.91 0.891429
4444.35 0.683035
4445.23 0.436419
4446.11 0.302285
4446.99 0.221588
4448.74 0.133708
4450.50 0.0895128
4452.25 0.0642398
4454.01 0.0484640
4455.77 0.0379765
4459.28 0.0253516
4462.79 0.0183796
4466.30 0.0141799
4469.81 0.0115273
4476.83 0.00886864
4480.35 0.00854686
4483.86 0.00908496
4487.37 0.0113394
4489.13 0.0139555
4490.88 0.0189780
4492.64 0.0300010
4493.51 0.0410630
4494.39 0.0612290
4495.27 0.103938
4495.71 0.145893
4496.15 0.221039
4496.59 0.376310
4496.81 0.525425
4497.03 0.783877
4497.25 1.29714
4497.36 1.76616
4497.47 2.53243
4497.58 3.93794
4497.63 5.11403
4497.68 6.84721
4497.74 9.64985
4497.79 14.4323
4497.82 18.2112
4497.85 23.2386
4497.88 30.2101
4497.90 39.8904
4497.93 51.3631
4497.95 64.0334
4498.00 79.7769
4498.02 75.1567
4498.05 64.0322
4498.10 39.8892
4498.13 28.1768
4498.17 20.4288
4498.20 15.1435
4498.23 11.6596
4498.30 7.39091
4498.37 5.08777
4498.44 3.68599
4498.51 2.78771
4498.65 1.75514
4498.78 1.20116
4498.92 0.874916
4499.20 0.523354
4499.47 0.347740
4499.74 0.248313
4500.29 0.145192
4500.84 0.0956203
4501.39 0.0681275
4502.49 0.0402065
4503.59 0.0270028
4504.69 0.0197300
4506.88 0.0123713
4509.08 0.00888123
4511.28 0.00693776
4515.67 0.00492631
4520.06 0.00393319
4524.46 0.00335551
4533.24 0.00272625
4550.81 0.00222117
4568.39 0.00206545
4603.53 0.00217523
4638.67 0.00272780
4673.82 0.00405864
4691.39 0.00539343
4708.96 0.00780370
4717.75 0.00981413
4726.53 0.0128582
4735.32 0.0177976
4744.11 0.0266269
4748.50 0.0339273
4752.89 0.0448784
4757.29 0.0623986
4761.68 0.0930243
4766.07 0.153974
4768.27 0.210049
4770.46 0.303411
4772.66 0.475753
4773.76 0.621878
4774.86 0.845248
4775.96 1.20907
4777.05 1.84869
4777.60 2.35867
4778.15 3.08205
4778.70 4.12509
4779.25 5.62233
4780.13 8.99737
4781.00 11.2468
4781.88 8.99324
4782.75 5.61837
4783.31 4.10593
4783.86 3.05903
4784.97 1.82665
4786.08 1.19121
4787.19 0.831404
4788.31 0.610847
4789.42 0.466857
4791.64 0.297449
4793.86 0.205838
4796.08 0.150944
4800.53 0.0914168
4804.97 0.0616459
4809.41 0.0447365
4813.86 0.0342934
4818.30 0.0274796
4827.19 0.0198464
4836.08 0.0174163
4840.52 0.0188727
4842.74 0.0212131
4844.97 0.0260745
4847.19 0.0371259
4848.30 0.0483395
4849.41 0.0688338
4850.52 0.112179
4851.08 0.154652
4851.63 0.230203
4852.19 0.385276
4852.47 0.532442
4852.74 0.784880
4853.02 1.27681
4853.16 1.71760
4853.30 2.42455
4853.44 3.67972
4853.51 4.70581
4853.58 6.18318
4853.65 8.47542
4853.72 12.1140
4853.78 18.2659
4853.82 22.9528
4853.85 29.0657
4853.93 46.5324
4854.00 58.1371
4854.07 46.5310
4854.15 29.0642
4854.19 21.4760
4854.24 16.2222
4854.32 9.83753
4854.41 6.47859
4854.50 4.56803
4854.59 3.36985
4854.68 2.59026
4854.86 1.65933
4855.03 1.14976
4855.21 0.844845
4855.56 0.512137
4855.92 0.344108
4856.27 0.248176
4856.63 0.188027
4856.98 0.148055
4857.69 0.0996761
4858.40 0.0726655
4859.11 0.0560576
4859.82 0.0451144
4861.24 0.0320249
4862.65 0.0247713
4865.49 0.0173856
4868.33 0.0138543
4871.16 0.0118811
4876.83 0.00987301
4888.18 0.00859399
4899.52 0.00871274
4910.86 0.00981863
4922.20 0.0124143
4927.88 0.0149492
4933.55 0.0200236
4936.38 0.0255713
4939.22 0.0391154
4940.64 0.0564994
4942.06 0.103249
4942.76 0.165455
4943.47 0.332026
4943.83 0.547968
4944.01 0.750031
4944.18 1.09382
4944.36 1.74918
4944.45 2.32857
4944.54 3.23612
4944.63 4.80854
4944.71 7.76216
4944.76 10.3715
4944.80 14.2804
4944.85 20.4538
4944.89 30.3335
4944.95 48.4829
4945.00 60.6399
4945.06 48.4820
4945.11 30.3327
4945.14 22.5066
4945.18 16.8681
4945.25 10.1615
4945.31 6.66468
4945.38 4.67069
4945.45 3.44266
4945.52 2.63829
4945.65 1.68887
4945.79 1.17383
4945.93 0.864526
4946.20 0.529121
4946.47 0.359959
4946.74 0.263409
4947.28 0.163414
4947.83 0.115399
4948.37 0.0889693
4949.46 0.0627427
4951.63 0.0454973
4953.80 0.0418169
4958.15 0.0462606
4962.49 0.0600188
4966.84 0.0874508
4969.01 0.111428
4971.19 0.149746
4973.36 0.218311
4974.45 0.276271
4975.53 0.366372
4976.62 0.520151
4977.71 0.818204
4978.25 1.08567
4978.79 1.51377
4979.34 2.24023
4979.88 3.50738
4980.44 5.52747
4981.00 6.87711
4981.56 5.55788
4982.12 3.57828
4982.68 2.32870
4983.23 1.64115
4983.79 1.25975
4984.34 1.04604
4984.89 0.929680
4985.45 0.876576
4986.00 0.869424
4986.56 0.900817
4987.11 0.969683
4987.67 1.07952
4988.22 1.23928
4988.77 1.46418
4989.33 1.77886
4989.88 2.21823
4990.44 2.83331
4990.99 3.68339
4992.00 5.83297
4993.00 7.26556
4993.50 6.83407
4994.01 5.81054
4995.01 3.63994
4995.85 2.42698
4996.69 1.68035
4997.53 1.21477
4998.37 0.912917
5000.05 0.565241
5001.72 0.383239
5003.40 0.276896
5005.08 0.209667
5008.44 0.132669
5011.79 0.0918872
5015.15 0.0676865
5021.86 0.0415537
5028.58 0.0284555
5035.29 0.0209667
5048.72 0.0131926
5062.14 0.00950722
5075.57 0.00756174
5102.42 0.00605339
5129.28 0.00651524
5142.70 0.00768263
5156.13 0.0101329
5169.56 0.0156247
5176.27 0.0211249
5182.98 0.0310746
5186.34 0.0393637
5189.70 0.0518644
5193.05 0.0719851
5196.41 0.107415
5198.09 0.136248
5199.77 0.178738
5201.45 0.245087
5203.12 0.356995
5204.80 0.567607
5205.64 0.749778
5206.48 1.03404
5207.32 1.51016
5207.74 1.87675
5208.16 2.38482
5208.58 3.11410
5209.00 4.18884
5209.42 5.82161
5209.84 8.29258
5210.42 13.2642
5211.00 16.5762
5211.58 13.2605
5212.16 8.28901
5212.77 5.02191
5213.37 3.22989
5213.97 2.21171
5214.57 1.59576
5215.17 1.19981
5215.77 0.933038
5216.97 0.608503
5218.18 0.427098
5219.38 0.316123
5221.78 0.193236
5224.19 0.130496
5226.59 0.0942684
5229.00 0.0714966
5231.40 0.0562731
5236.21 0.0378270
5241.02 0.0275341
5245.83 0.0212340
5250.64 0.0171246
5260.26 0.0123412
5269.88 0.00989167
5289.12 0.00814141
5308.36 0.00902217
5317.98 0.0107460
5327.59 0.0142381
5337.21 0.0218955
5342.02 0.0294676
5346.83 0.0430336
5349.24 0.0542550
5351.64 0.0710837
5354.05 0.0979994
5356.45 0.145025
5358.86 0.238728
5360.06 0.325102
5361.26 0.469184
5362.46 0.736292
5363.07 0.963656
5363.67 1.31274
5364.27 1.88421
5364.87 2.89884
5365.17 3.71681
5365.47 4.88292
5365.77 6.58717
5366.07 9.05235
5366.54 14.4802
5367.00 18.0979
5367.47 14.4774
5367.93 9.05006
5368.29 6.21129
5368.64 4.39190
5369.00 3.22042
5369.36 2.44262
5370.07 1.52701
5370.79 1.03892
5371.50 0.750936
5372.21 0.568263
5373.64 0.359749
5375.07 0.250655
5376.50 0.187550
5379.35 0.124648
5382.21 0.104789
5383.63 0.108249
5385.06 0.125825
5386.49 0.173666
5387.20 0.223756
5387.92 0.314567
5388.63 0.501319
5388.99 0.677178
5389.34 0.976477
5389.70 1.54578
5389.88 2.04555
5390.06 2.82954
5390.24 4.17093
5390.33 5.21252
5390.41 6.67851
5390.50 8.81284
5390.59 12.0336
5390.68 17.0476
5390.77 24.8900
5390.89 39.7569
5391.00 49.6475
5391.12 39.7545
5391.23 24.8871
5391.35 14.7983
5391.48 9.38725
5391.60 6.37097
5391.73 4.58215
5391.85 3.43361
5391.97 2.66912
5392.22 1.74013
5392.47 1.22408
5392.71 0.909142
5393.21 0.561402
5393.70 0.383762
5394.20 0.281316
5395.18 0.173331
5396.17 0.120265
5397.16 0.0901673
5399.14 0.0586242
5401.12 0.0429794
5403.09 0.0338973
5407.05 0.0240226
5411.00 0.0188828
5414.95 0.0158122
5422.86 0.0125124
5438.68 0.0105773
5454.49 0.0117927
5470.31 0.0168047
5478.22 0.0222937
5486.13 0.0324738
5490.08 0.0410444
5494.03 0.0540419
5497.99 0.0750693
5501.94 0.112315
5503.92 0.142753
5505.90 0.187831
5507.87 0.258632
5509.85 0.379030
5511.83 0.608284
5512.82 0.809404
5513.80 1.12723
5514.79 1.67072
5515.29 2.09642
5515.78 2.69861
5516.28 3.58109
5516.77 4.92435
5517.26 7.03911
5517.76 10.3915
5518.38 16.6304
5519.00 20.7789
5519.62 16.6151
5520.24 10.3870
5520.97 5.90285
5521.70 3.62699
5522.43 2.40884
5523.16 1.70248
5523.89 1.26129
5524.62 0.970058
5526.08 0.622873
5527.54 0.432757
5529.00 0.317998
5531.92 0.192531
5534.84 0.129176
5537.75 0.0928654
5540.67 0.0701456
5543.59 0.0550153
5549.43 0.0367946
5555.27 0.0268625
5561.10 0.0221501
5564.02 0.0259904
5565.48 0.0482399
5566.21 0.132025
5566.57 0.409121
5566.76 1.16585
5566.85 2.69369
5566.89 4.79685
5566.94 9.64514
5566.97 15.3778
5567.00 19.2855
5567.03 15.3777
5567.06 9.64495
5567.11 4.93357
5567.15 2.81794
5567.24 1.23976
5567.41 0.437174
5567.76 0.140675
5568.46 0.0492255
5569.86 0.0233040
5572.65 0.0154147
5578.24 0.0117269
5589.41 0.00867395
5611.77 0.00598445
5634.12 0.00492992
5656.47 0.00464612
5678.83 0.00495946
5701.18 0.00610527
5712.36 0.00730609
5723.53 0.00960149
5729.12 0.0118633
5734.71 0.0167723
5737.50 0.0225981
5738.90 0.0280627
5740.30 0.0376963
5741.69 0.0576759
5743.09 0.112118
5743.79 0.184900
5744.49 0.379207
5744.84 0.630393
5745.19 1.26110
5745.36 2.01481
5745.45 2.66818
5745.54 3.69395
5745.62 5.45372
5745.71 8.70742
5745.76 11.4967
5745.80 15.5833
5745.84 22.0446
5745.89 31.8574
5745.94 51.1202
5746.00 63.6949
5746.06 51.1194
5746.11 31.8566
5746.16 21.3291
5746.21 14.7954
5746.26 10.6236
5746.30 7.97510
5746.40 4.89132
5746.49 3.29556
5746.59 2.35685
5746.68 1.77227
5746.87 1.10390
5747.06 0.752896
5747.25 0.548355
5747.63 0.330616
5748.01 0.223212
5748.39 0.162839
5749.14 0.100856
5749.90 0.0715142
5750.66 0.0554920
5752.17 0.0398406
5753.68 0.0331315
5755.20 0.0300944
5758.22 0.0287758
5764.28 0.0344209
5770.33 0.0489476
5773.36 0.0615327
5776.39 0.0805628
5779.41 0.111006
5782.44 0.163876
5785.47 0.267668
5786.98 0.361583
5788.50 0.515049
5789.25 0.631052
5790.01 0.790499
5790.77 1.01741
5791.52 1.35367
5792.28 1.87942
5793.04 2.75173
5793.79 4.29491
5794.17 5.49684
5794.55 7.11534
5795.28 11.3808
5796.00 14.2222
5796.73 11.3773
5797.45 7.11186
5797.99 4.94009
5798.53 3.52659
5799.06 2.60422
5799.60 1.98533
5800.68 1.24880
5801.75 0.851736
5802.83 0.615811
5803.91 0.465256
5806.06 0.292039
5808.21 0.200243
5810.36 0.145987
5812.51 0.111293
5814.66 0.0878094
5818.97 0.0589771
5823.27 0.0426444
5827.57 0.0325189
5831.87 0.0258210
5840.48 0.0178159
5849.09 0.0134304
5866.30 0.00914839
5883.51 0.00736343
5900.72 0.00666081
5935.15 0.00697927
5969.57 0.00944882
5986.78 0.0121063
6003.99 0.0168444
6021.21 0.0263827
6029.81 0.0352938
6038.42 0.0505029
6047.02 0.0799005
6051.33 0.106251
6053.48 0.124887
6055.63 0.149091
6057.78 0.181336
6059.93 0.225515
6062.08 0.288245
6064.24 0.381043
6066.39 0.525594
6068.54 0.764415
6069.61 0.943827
6070.69 1.18485
6071.77 1.51165
6072.84 1.95013
6074.92 3.11453
6077.00 3.88973
6079.08 3.11262
6081.16 1.94915
6082.49 1.42435
6083.82 1.06190
6086.49 0.637403
6089.15 0.419771
6091.81 0.297262
6094.48 0.222706
6097.14 0.174512
6102.46 0.119089
6107.79 0.0908668
6113.11 0.0760292
6123.77 0.0676206
6134.42 0.0805315
6139.74 0.0979139
6145.07 0.128747
6150.39 0.185572
6155.72 0.300997
6158.38 0.406284
6161.05 0.575953
6163.71 0.863544
6166.37 1.36127
6169.19 2.17028
6172.00 2.71018
6174.82 2.17970
6177.63 1.41337
6179.26 1.24115
6179.67 1.32983
6180.08 1.67227
6180.28 2.14115
6180.49 3.28291
6180.59 4.54809
6180.69 7.09064
6180.74 9.40833
6180.79 13.1526
6180.84 19.5265
6180.89 30.3668
6180.95 48.2838
6181.00 59.9650
6181.05 48.2703
6181.11 30.3401
6181.15 20.8535
6181.19 14.8543
6181.23 10.9519
6181.28 8.44908
6181.36 5.49142
6181.45 3.94038
6181.53 3.01604
6181.62 2.42928
6181.78 1.75641
6181.95 1.39302
6182.12 1.17416
6182.46 0.926553
6183.14 0.701973
6183.82 0.589920
6185.17 0.461228
6186.53 0.380024
6189.24 0.275471
6191.95 0.209986
6197.36 0.134100
6202.78 0.0933086
6208.20 0.0688788
6213.62 0.0530947
6224.46 0.0345900
6235.30 0.0245357
6246.14 0.0184478
6267.81 0.0117220
6289.49 0.00826175
6311.16 0.00624394
6354.52 0.00412495
6397.87 0.00316854
6441.22 0.00283489
6484.57 0.00320548
6506.25 0.00416236
6511.67 0.00475288
6517.09 0.00599486
6519.80 0.00744557
6522.51 0.0111904
6523.86 0.0161659
6525.22 0.0298571
6525.89 0.0484126
6526.57 0.0990230
6526.91 0.166147
6527.25 0.341567
6527.42 0.563092
6527.59 1.09574
6527.67 1.70299
6527.76 2.95694
6527.80 4.18705
6527.84 6.24035
6527.88 10.0046
6527.93 17.4318
6527.96 27.9088
6528.00 34.8397
6528.04 27.9086
6528.07 17.4316
6528.10 11.9149
6528.13 8.47319
6528.19 4.70454
6528.25 2.93486
6528.30 2.00293
6528.41 1.09067
6528.53 0.683279
6528.75 0.340829
6528.98 0.204693
6529.43 0.0989633
6529.88 0.0596590
6530.79 0.0304464
6531.69 0.0199795
6533.50 0.0125386
6535.31 0.0101083
6538.93 0.00886903
6542.55 0.00910259
6549.79 0.0113490
6557.03 0.0161381
6560.65 0.0202326
6564.27 0.0264618
6567.88 0.0365631
6571.50 0.0545134
6573.31 0.0692395
6575.12 0.0911175
6576.93 0.125680
6578.74 0.184874
6580.55 0.299037
6581.46 0.400461
6582.36 0.562938
6583.27 0.846449
6583.72 1.07362
6584.17 1.40063
6584.62 1.89349
6585.08 2.66800
6585.53 3.94251
6585.98 6.07266
6586.49 9.71757
6587.00 12.1399
6587.51 9.70809
6588.02 6.07085
6588.47 3.94835
6588.92 2.67559
6589.37 1.90074
6589.82 1.40873
6590.72 0.852318
6591.62 0.567464
6592.52 0.403701
6593.42 0.301653
6595.22 0.186677
6597.02 0.126968
6598.81 0.0921459
6600.61 0.0700863
6602.41 0.0552639
6606.01 0.0372102
6609.60 0.0270810
6613.20 0.0208602
6616.80 0.0167909
6623.99 0.0120398
6631.19 0.00959690
6645.58 0.00783115
6659.96 0.00868665
6667.16 0.0104105
6674.35 0.0139404
6681.55 0.0217524
6685.14 0.0295122
6688.74 0.0434321
6690.54 0.0549328
6692.34 0.0721206
6694.14 0.0994779
6695.93 0.146819
6697.73 0.239574
6698.63 0.323315
6699.53 0.460037
6700.43 0.705094
6700.88 0.906613
6701.33 1.20439
6701.78 1.66919
6702.23 2.43548
6702.45 3.01176
6702.68 3.78650
6702.90 4.83550
6703.13 6.23641
6703.56 9.97663
6704.00 12.4695
6704.44 9.97500
6704.87 6.23484
6705.38 3.55541
6705.89 2.19193
6706.40 1.45815
6706.91 1.03208
6707.42 0.765445
6707.92 0.589367
6708.94 0.379189
6709.96 0.264053
6710.97 0.194455
6713.01 0.118329
6715.04 0.0798857
6717.08 0.0578403
6719.11 0.0440501
6721.14 0.0348654
6725.21 0.0237814
6729.28 0.0176282
6737.41 0.0114657
6745.55 0.00870781
6753.69 0.00738866
6769.96 0.00683199
6786.23 0.00838746
6794.36 0.0103861
6802.50 0.0141210
6810.63 0.0218863
6814.70 0.0293126
6818.77 0.0422935
6822.84 0.0684247
6824.87 0.0929774
6826.90 0.135107
6828.94 0.217130
6829.95 0.291047
6830.97 0.411737
6831.48 0.502981
6831.99 0.628166
6832.50 0.806790
6833.00 1.07172
6833.51 1.48725
6834.02 2.17763
6834.28 2.69926
6834.53 3.40449
6834.78 4.36565
6835.04 5.66487
6835.52 9.05960
6836.00 11.3165
6836.48 9.05167
6836.96 5.66570
6837.32 3.93398
6837.68 2.80966
6838.04 2.07764
6838.40 1.58855
6839.12 1.00607
6839.83 0.693399
6840.55 0.508426
6841.27 0.391337
6842.70 0.258663
6844.14 0.191327
6845.57 0.155110
6848.44 0.129726
6851.31 0.148012
6852.74 0.178691
6854.18 0.236572
6855.61 0.350294
6856.33 0.449382
6857.05 0.603271
6857.77 0.858170
6858.48 1.31496
6858.84 1.68628
6859.20 2.21984
6859.56 3.00594
6859.92 4.15426
6860.46 6.63407
6861.00 8.28643
6861.54 6.63129
6862.08 4.15007
6862.44 3.01692
6862.79 2.23938
6863.49 1.33295
6864.19 0.869066
6864.89 0.608182
6865.60 0.448505
6866.30 0.344555
6867.70 0.222216
6869.11 0.155835
6870.51 0.115871
6873.32 0.0721235
6876.13 0.0498266
6878.94 0.0368640
6884.56 0.0230129
6890.18 0.0160618
6895.80 0.0120365
6907.04 0.00773989
6918.27 0.00558786
6929.51 0.00435279
6951.99 0.00308123
6974.46 0.00254010
6996.94 0.00244112
7008.17 0.00263725
7019.41 0.00336003
7025.03 0.00440286
7027.84 0.00544886
7030.65 0.00736126
7033.46 0.0114526
7034.86 0.0155257
7036.27 0.0229357
7037.67 0.0386828
7038.37 0.0542184
7039.08 0.0822194
7039.78 0.140823
7040.48 0.297781
7040.83 0.500234
7041.18 1.01009
7041.36 1.62000
7041.53 2.98057
7041.62 4.39780
7041.71 7.05333
7041.75 9.30908
7041.80 12.7059
7041.84 17.9781
7041.89 25.9850
7041.91 33.3080
7041.94 41.7026
7042.00 51.9631
7042.03 48.8515
7042.06 41.7020
7042.11 25.9843
7042.15 19.2180
7042.19 14.3553
7042.26 8.65896
7042.33 5.68213
7042.40 3.98155
7042.47 2.93274
7042.54 2.24501
7042.68 1.43232
7042.83 0.990906
7042.97 0.725567
7043.25 0.436806
7043.54 0.291271
7043.82 0.208399
7044.39 0.122139
7044.96 0.0804604
7045.53 0.0572785
7046.66 0.0336845
7047.80 0.0225450
7048.94 0.0164230
7051.21 0.0102829
7053.48 0.00743043
7055.76 0.00588901
7060.31 0.00439467
7069.40 0.00348493
7078.50 0.00343248
7087.59 0.00384354
7096.69 0.00506047
7101.24 0.00659646
7105.79 0.0106472
7108.06 0.0160591
7110.33 0.0309817
7111.47 0.0512138
7112.61 0.106596
7113.18 0.180233
7113.75 0.373913
7114.03 0.618146
7114.31 1.21293
7114.46 1.89274
7114.60 3.33378
7114.67 4.73245
7114.74 7.15658
7114.81 11.7281
7114.85 15.5778
7114.88 20.9862
7114.94 33.6076
7115.00 41.9643
7115.06 33.6071
7115.12 20.9857
7115.19 11.9985
7115.26 7.38877
7115.33 4.91403
7115.39 3.47475
7115.53 1.98170
7115.67 1.27315
7115.81 0.885113
7115.95 0.650590
7116.22 0.394104
7116.50 0.264588
7116.77 0.190311
7117.33 0.112941
7117.88 0.0754665
7118.43 0.0545782
7119.53 0.0333808
7120.64 0.0234095
7121.74 0.0179850
7123.95 0.0126729
7128.36 0.00927785
7132.77 0.00866607
7141.60 0.0100470
7150.42 0.0139992
7154.84 0.0174578
7159.25 0.0226935
7163.66 0.0310584
7168.08 0.0455352
7172.49 0.0737679
7174.70 0.0991262
7176.90 0.140244
7179.11 0.213150
7180.21 0.272441
7181.32 0.359364
7182.42 0.493042
7183.52 0.709641
7184.63 1.08070
7185.73 1.73262
7186.87 2.77119
7188.00 3.46295
7189.14 2.77006
7190.27 1.73153
7191.10 1.20699
7191.94 0.864474
7192.77 0.640025
7193.60 0.488917
7195.27 0.308379
7196.94 0.210723
7198.60 0.152604
7200.27 0.115480
7203.60 0.0726846
7206.93 0.0499782
7210.27 0.0365413
7216.93 0.0221317
7223.60 0.0149902
7230.26 0.0109516
7236.93 0.00845757
7243.59 0.00682166
7256.92 0.00492953
7270.25 0.00408844
7283.59 0.00462872
7286.92 0.00568915
7290.25 0.00887879
7291.92 0.0133650
7293.58 0.0259870
7294.42 0.0432376
7295.25 0.0906301
7295.67 0.153799
7296.08 0.320135
7296.29 0.531700
7296.50 1.04711
7296.60 1.63874
7296.71 2.89998
7296.76 4.13181
7296.81 6.28155
7296.86 10.3762
7296.89 13.7982
7296.92 18.6634
7296.96 30.0002
7297.00 37.3241
7297.04 29.7189
7297.09 18.6631
7297.12 13.0409
7297.15 9.45025
7297.21 5.43240
7297.27 3.46056
7297.33 2.37847
7297.45 1.30522
7297.57 0.823116
7297.81 0.411327
7298.05 0.246281
7298.53 0.117528
7299.01 0.0692703
7299.98 0.0332486
7300.94 0.0202134
7302.87 0.0106948
7304.80 0.00733040
7308.65 0.00499733
7312.51 0.00440033
7316.36 0.00463191
7320.22 0.00627811
7322.14 0.00881557
7324.07 0.0161196
7325.03 0.0262160
7326.00 0.0542674
7326.48 0.0920826
7326.96 0.193889
7327.20 0.325888
7327.44 0.660893
7327.57 1.06627
7327.69 1.98047
7327.75 2.93977
7327.81 4.76237
7327.87 8.73708
7327.90 12.5460
7327.93 18.8703
7327.96 30.2160
7328.00 37.7562
7328.04 30.2158
7328.07 18.8701
7328.11 11.4890
7328.15 7.40266
7328.23 3.66399
7328.30 2.14444
7328.38 1.39839
7328.53 0.725720
7328.68 0.442644
7328.99 0.214410
7329.29 0.126625
7329.90 0.0599796
7330.51 0.0355201
7331.72 0.0175019
7332.94 0.0110381
7335.37 0.00634154
7337.80 0.00467432
7342.67 0.00348159
7347.53 0.00308626
7366.99 0.00304869
7376.71 0.00346373
7386.44 0.00448882
7391.31 0.00573051
7393.74 0.00689680
7396.17 0.00895517
7398.60 0.0132421
7401.03 0.0250689
7402.25 0.0411604
7403.47 0.0855152
7404.07 0.144969
7404.68 0.303944
7404.99 0.508389
7405.29 1.02104
7405.44 1.62854
7405.59 2.98134
7405.67 4.37025
7405.75 6.93925
7405.78 9.09297
7405.82 12.2955
7405.86 17.1884
7405.90 24.6061
7405.92 31.3434
7405.95 39.2663
7406.00 49.2201
7406.03 46.2864
7406.05 39.2658
7406.10 24.6057
7406.14 18.0041
7406.17 13.3856
7406.23 8.02757
7406.30 5.24969
7406.36 3.67065
7406.50 2.05703
7406.63 1.31219
7406.76 0.905751
7406.89 0.663887
7407.15 0.400663
7407.41 0.267958
7407.67 0.192196
7408.19 0.113601
7408.71 0.0756641
7409.23 0.0545937
7410.27 0.0332099
7411.32 0.0231527
7412.36 0.0176750
7414.44 0.0122839
7416.53 0.00990661
7418.61 0.00874684
7422.78 0.00796146
7431.13 0.00880419
7439.47 0.0117298
7447.81 0.0182536
7451.98 0.0245920
7456.15 0.0357592
7460.32 0.0583435
7462.40 0.0795570
7464.49 0.115811
7466.57 0.185548
7467.61 0.247470
7468.66 0.346656
7469.70 0.519711
7470.22 0.658068
7470.74 0.857670
7471.26 1.15854
7471.78 1.63178
7472.31 2.41131
7472.83 3.71581
7473.41 5.94157
7474.00 7.42476
7474.59 5.94059
7475.17 3.71506
7475.60 2.61270
7476.02 1.88463
7476.44 1.40338
7476.86 1.07781
7477.70 0.685504
7478.54 0.471621
7479.38 0.343719
7480.22 0.261873
7481.90 0.167397
7483.59 0.117339
7485.27 0.0879109
7488.63 0.0569482
7492.00 0.0425170
7495.36 0.0354862
7502.09 0.0326563
7508.82 0.0419014
7512.19 0.0538560
7515.55 0.0764572
7518.92 0.123780
7520.60 0.168751
7522.28 0.245861
7523.96 0.394214
7524.80 0.525380
7525.65 0.734705
7526.49 1.09678
7526.91 1.38460
7527.33 1.79563
7527.75 2.40886
7528.17 3.35917
7528.59 4.89925
7529.01 7.41238
7529.51 11.8594
7530.00 14.8144
7530.50 11.8479
7530.99 7.41030
7531.46 4.66330
7531.94 3.08233
7532.41 2.15130
7532.88 1.57341
7533.82 0.936784
7534.77 0.617648
7535.71 0.436900
7536.66 0.325174
7538.54 0.200429
7540.43 0.136122
7542.32 0.0987526
7544.21 0.0751437
7546.09 0.0592916
7549.87 0.0399680
7553.64 0.0290964
7557.42 0.0223833
7561.20 0.0179618
7568.75 0.0127280
7576.30 0.00995621
7591.40 0.00772605
7606.50 0.00817025
7614.05 0.00963290
7621.60 0.0127700
7629.15 0.0198162
7632.93 0.0268157
7636.70 0.0392940
7640.48 0.0646902
7642.37 0.0885295
7644.25 0.129049
7646.14 0.206206
7647.09 0.273807
7648.03 0.380511
7648.97 0.562683
7649.45 0.705305
7649.92 0.906812
7650.39 1.20166
7650.86 1.64951
7651.33 2.35268
7651.80 3.46077
7652.40 5.53619
7653.00 6.91941
7653.60 5.53508
7654.20 3.45967
7654.89 1.98210
7655.58 1.22567
7656.27 0.817164
7656.96 0.579196
7657.65 0.430068
7658.35 0.331399
7659.73 0.213554
7661.11 0.148846
7662.49 0.109692
7665.26 0.0668284
7668.02 0.0451394
7670.79 0.0326854
7673.55 0.0248787
7676.32 0.0196641
7681.85 0.0133447
7687.38 0.00980496
7698.44 0.00618673
7709.50 0.00447754
7720.57 0.00355810
7742.69 0.00276460
7764.81 0.00277272
7775.87 0.00312348
7786.93 0.00393219
7797.99 0.00581891
7803.53 0.00773978
7809.06 0.0112451
7811.82 0.0141837
7814.59 0.0186340
7817.35 0.0258353
7820.12 0.0386090
7821.50 0.0490717
7822.88 0.0645998
7825.65 0.130797
7827.03 0.210835
7827.72 0.281437
7828.41 0.393905
7829.10 0.588366
7829.45 0.742504
7829.80 0.962090
7830.14 1.28906
7830.49 1.79387
7830.83 2.60895
7831.18 3.93177
7831.59 6.29450
7832.00 7.86475
7832.41 6.28755
7832.82 3.93096
7833.08 2.88816
7833.34 2.16040
7833.85 1.29914
7834.36 0.850978
7834.88 0.595672
7835.39 0.438271
7835.90 0.335438
7836.93 0.214068
7837.96 0.148172
7838.98 0.108637
7841.04 0.0656228
7843.09 0.0440151
7845.14 0.0316619
7847.19 0.0239475
7849.25 0.0188127
7853.35 0.0126114
7857.46 0.00915458
7861.56 0.00703183
7865.67 0.00563625
7873.88 0.00397363
7882.09 0.00306140
7898.51 0.00215774
7914.94 0.00176275
7931.36 0.00158728
7964.20 0.00158531
7997.05 0.00202689
8013.47 0.00255570
8029.89 0.00356098
8038.10 0.00441908
8046.31 0.00573386
8054.53 0.00788854
8062.74 0.0117750
8066.84 0.0150095
8070.95 0.0198845
8075.05 0.0277319
8079.16 0.0415518
8083.26 0.0693760
8085.32 0.0952754
8087.37 0.138949
8089.42 0.221149
8090.45 0.292357
8091.48 0.403417
8092.50 0.589757
8093.02 0.733001
8093.53 0.932096
8094.04 1.21736
8094.55 1.63911
8095.07 2.27892
8095.58 3.25071
8096.29 5.20085
8097.00 6.50052
8097.71 5.19970
8098.42 3.24960
8099.17 1.94994
8099.92 1.24528
8100.67 0.848569
8101.41 0.610129
8102.16 0.457764
8102.91 0.355253
8104.41 0.230981
8105.90 0.161797
8107.40 0.119526
8110.39 0.0728296
8113.38 0.0490287
8116.37 0.0352976
8119.37 0.0266704
8122.36 0.0209013
8128.34 0.0139094
8134.33 0.00999958
8140.31 0.00759680
8146.29 0.00601760
8158.26 0.00414297
8170.23 0.00312466
8194.17 0.00214822
8218.11 0.00177996
8242.04 0.00173807
8254.01 0.00185497
8265.98 0.00218591
8271.96 0.00258666
8277.95 0.00360012
8280.94 0.00492390
8283.93 0.00855253
8285.43 0.0134982
8286.92 0.0272479
8287.67 0.0459216
8288.42 0.0969309
8288.79 0.164377
8289.17 0.340805
8289.35 0.561350
8289.54 1.09150
8289.64 1.69219
8289.73 2.92494
8289.82 6.10230
8289.87 9.73514
8289.92 16.4276
8289.96 26.4064
8290.00 32.8531
8290.04 26.1589
8290.09 16.4274
8290.12 10.9776
8290.16 7.59718
8290.22 4.13705
8290.29 2.53631
8290.36 1.70984
8290.50 0.917853
8290.64 0.569956
8290.92 0.280954
8291.20 0.167419
8291.75 0.0794943
8292.31 0.0469109
8293.42 0.0227273
8294.53 0.0140398
8296.75 0.00778370
8298.97 0.00564029
8303.42 0.00428282
8307.86 0.00405147
8316.75 0.00465769
8325.63 0.00636813
8330.08 0.00788699
8334.52 0.0102284
8338.96 0.0140699
8343.40 0.0209903
8345.63 0.0267408
8347.85 0.0353961
8350.07 0.0492952
8352.29 0.0736892
8354.51 0.122568
8355.62 0.167823
8356.73 0.243647
8357.85 0.385114
8358.40 0.506555
8358.96 0.693937
8359.51 1.00418
8359.79 1.23970
8360.07 1.56167
8360.35 2.01719
8360.62 2.67447
8360.90 3.64989
8361.18 5.08391
8361.59 8.13505
8362.00 10.1611
8362.41 8.12616
8362.82 5.08295
8363.22 3.17312
8363.62 2.08457
8364.02 1.44846
8364.42 1.05584
8364.82 0.800132
8365.22 0.625645
8366.02 0.411078
8366.81 0.289948
8367.61 0.215245
8369.21 0.132040
8370.80 0.0892549
8372.40 0.0644600
8373.99 0.0488166
8375.59 0.0383361
8378.78 0.0256009
8381.97 0.0184639
8385.16 0.0140745
8388.35 0.0111901
8394.73 0.00777282
8401.12 0.00592744
8413.88 0.00419137
8426.64 0.00358488
8439.41 0.00358762
8452.17 0.00442159
8458.55 0.00646017
8461.75 0.0126457
8463.34 0.0348177
8464.14 0.114733
8464.54 0.380068
8464.74 1.11784
8464.84 2.66393
8464.89 4.84146
8464.94 9.98815
8464.97 15.9738
8465.00 19.9834
8465.03 15.9737
8465.06 9.98810
8465.10 5.79261
8465.14 3.57150
8465.21 1.69667
8465.36 0.625131
8465.65 0.196211
8466.24 0.0590009
8467.41 0.0203772
8469.76 0.0110441
8474.46 0.0130085
8476.81 0.0188187
8477.98 0.0247087
8479.16 0.0354000
8480.33 0.0579146
8481.51 0.119056
8482.09 0.199390
8482.68 0.407644
8482.97 0.665695
8483.27 1.27392
8483.41 1.94705
8483.56 3.31060
8483.63 4.57979
8483.71 6.63230
8483.78 10.1896
8483.82 12.9580
8483.85 16.6296
8483.89 21.2371
8483.93 26.6230
8484.00 33.2626
8484.04 31.2596
8484.07 26.6225
8484.15 16.6292
8484.20 11.8125
8484.25 8.57887
8484.30 6.41958
8484.35 4.96800
8484.45 3.16640
8484.55 2.18440
8484.65 1.58759
8484.76 1.20692
8484.96 0.763672
8485.16 0.525387
8485.36 0.383763
8485.77 0.231492
8486.17 0.155453
8486.58 0.112344
8487.39 0.0677390
8488.20 0.0463546
8489.01 0.0345369
8490.63 0.0227152
8492.25 0.0173344
8493.88 0.0145734
8497.12 0.0123239
8503.60 0.0126931
8510.09 0.0165777
8516.57 0.0257820
8519.82 0.0348167
8523.06 0.0507490
8526.30 0.0829188
8527.92 0.113025
8529.54 0.164254
8531.17 0.262201
8531.98 0.348509
8532.79 0.485638
8533.60 0.722226
8534.00 0.909154
8534.41 1.17584
8534.81 1.57225
8535.22 2.18346
8535.62 3.16459
8536.03 4.75607
8536.52 7.60797
8537.00 9.50340
8537.49 7.60095
8537.97 4.75566
8538.55 2.68683
8539.13 1.64599
8539.71 1.09249
8540.28 0.772676
8540.86 0.573943
8541.44 0.442977
8542.59 0.287696
8543.75 0.203134
8544.91 0.152460
8547.22 0.0980906
8549.53 0.0720014
8551.84 0.0586708
8556.46 0.0509025
8561.09 0.0615981
8563.40 0.0770647
8565.71 0.106435
8568.02 0.166688
8569.18 0.222259
8570.33 0.314083
8571.49 0.480974
8572.07 0.619961
8572.64 0.827910
8573.22 1.15752
8573.80 1.71462
8574.09 2.14169
8574.38 2.72638
8574.67 3.53478
8574.95 4.63945
8575.48 7.41778
8576.00 9.26907
8576.52 7.41632
8577.05 4.63772
8577.60 2.77247
8578.16 1.76567
8578.72 1.20159
8579.27 0.863683
8579.83 0.648255
8580.39 0.503543
8581.50 0.328468
8582.62 0.230978
8583.73 0.171462
8585.96 0.105601
8588.18 0.0719173
8590.41 0.0524095
8592.64 0.0400847
8594.86 0.0317900
8599.32 0.0216321
8603.77 0.0158588
8612.68 0.00982833
8621.59 0.00687601
8630.50 0.00520200
8648.32 0.00347025
8666.14 0.00265678
8683.95 0.00224397
8719.59 0.00201235
8755.22 0.00238314
8773.04 0.00291789
8790.86 0.00396280
8808.68 0.00623296
8817.59 0.00847753
8826.49 0.0125050
8830.95 0.0158396
8835.40 0.0208402
8839.86 0.0288351
8844.31 0.0427792
8848.77 0.0704309
8850.99 0.0957457
8853.22 0.137700
8855.45 0.214504
8856.56 0.279154
8857.67 0.377073
8858.79 0.534681
8859.90 0.807020
8860.46 1.02073
8861.02 1.31930
8861.57 1.74207
8862.13 2.33579
8863.06 3.73590
8864.00 4.66857
8864.94 3.73490
8865.87 2.33483
8866.51 1.67281
8867.14 1.22560
8867.77 0.923480
8868.41 0.715037
8869.67 0.459475
8870.94 0.317718
8872.21 0.231905
8873.47 0.176453
8876.00 0.111798
8878.54 0.0771201
8881.07 0.0564639
8886.13 0.0341664
8891.20 0.0230550
8896.26 0.0167510
8901.33 0.0128490
8906.39 0.0102841
8916.53 0.00730319
8926.66 0.00594054
8936.79 0.00658001
8939.32 0.00803985
8941.85 0.0124698
8943.12 0.0187015
8944.38 0.0361490
8945.02 0.0598164
8945.65 0.124043
8945.97 0.208330
8946.28 0.424703
8946.44 0.691877
8946.60 1.31282
8946.68 1.98685
8946.76 3.32228
8946.84 6.44917
8946.88 9.73436
8946.92 15.2231
8946.96 24.4692
8947.00 30.4424
8947.04 24.2398
8947.09 15.2229
8947.12 10.1733
8947.16 7.04115
8947.23 3.80536
8947.30 2.33723
8947.37 1.56971
8947.51 0.842502
8947.65 0.523523
8947.93 0.258808
8948.21 0.154639
8948.77 0.0743560
8949.32 0.0445791
8950.44 0.0224381
8951.56 0.0144474
8953.80 0.00862859
8956.04 0.00658064
8960.52 0.00523085
8964.99 0.00508937
8969.47 0.00580319
8973.94 0.00853411
8976.18 0.0125041
8978.42 0.0237703
8979.54 0.0392279
8980.66 0.0818647
8981.22 0.138938
8981.78 0.290396
8982.06 0.484008
8982.34 0.964317
8982.48 1.52590
8982.62 2.75339
8982.69 3.98682
8982.76 6.21082
8982.83 10.6638
8982.86 14.5697
8982.90 20.2861
8982.92 25.8406
8982.95 32.3726
8983.00 40.5790
8983.03 38.1604
8983.05 32.3723
8983.10 20.2857
8983.14 14.7055
8983.17 10.9408
8983.24 6.52427
8983.30 4.25120
8983.37 2.96532
8983.50 1.66325
8983.63 1.05832
8983.90 0.535033
8984.16 0.322132
8984.69 0.154187
8985.22 0.0909075
8986.27 0.0433808
8987.33 0.0261034
8989.45 0.0134584
8991.56 0.00895293
8995.79 0.00571162
9000.01 0.00459937
9008.47 0.00391045
9016.92 0.00384400
9033.83 0.00442112
9050.74 0.00589496
9067.65 0.00918793
9076.11 0.0124347
9084.56 0.0182323
9088.79 0.0230177
9093.02 0.0301838
9097.24 0.0416339
9101.47 0.0616383
9105.70 0.101498
9107.81 0.138238
9109.92 0.199581
9112.04 0.313364
9113.10 0.410404
9114.15 0.559421
9115.21 0.804004
9115.74 0.988448
9116.27 1.23943
9116.79 1.59110
9117.32 2.09440
9117.85 2.82939
9118.38 3.89916
9119.19 6.23672
9120.00 7.79453
9120.81 6.23545
9121.62 3.89807
9122.22 2.71268
9122.82 1.94073
9123.42 1.43580
9124.02 1.09637
9125.21 0.691652
9126.41 0.472942
9127.60 0.343027
9128.80 0.260100
9131.19 0.164728
9133.58 0.114382
9135.98 0.0848275
9140.76 0.0538872
9145.54 0.0399800
9150.33 0.0351549
9152.72 0.0366877
9155.11 0.0454295
9156.31 0.0586195
9157.50 0.0955816
9158.10 0.145165
9158.70 0.277446
9159.00 0.447112
9159.30 0.871118
9159.45 1.37398
9159.60 2.48047
9159.67 3.61742
9159.75 5.71180
9159.82 10.0499
9159.86 13.9222
9159.90 19.9195
9159.92 25.3667
9159.95 31.7725
9160.00 39.8203
9160.03 37.4485
9160.05 31.7723
9160.10 19.9193
9160.14 13.5438
9160.19 9.48265
9160.27 5.20710
9160.35 3.23253
9160.43 2.19888
9160.59 1.20026
9160.76 0.757995
9161.08 0.388560
9161.41 0.242559
9162.06 0.129984
9162.71 0.0887117
9164.02 0.0594589
9165.32 0.0509175
9167.93 0.0512765
9170.54 0.0642636
9173.15 0.0955274
9174.45 0.125487
9175.76 0.176020
9177.06 0.270116
9177.72 0.350247
9178.37 0.473133
9179.02 0.674194
9179.67 1.02924
9180.00 1.31362
9180.32 1.71865
9180.65 2.30549
9180.98 3.15222
9181.49 5.03621
9182.00 6.29132
9182.51 5.03534
9183.02 3.15120
9183.55 1.92740
9184.07 1.24874
9184.59 0.860555
9185.11 0.624971
9185.63 0.472866
9186.15 0.369929
9187.19 0.244480
9188.23 0.174145
9189.27 0.131037
9191.36 0.0832377
9193.44 0.0588162
9195.52 0.0447649
9199.69 0.0302696
9203.85 0.0236782
9208.02 0.0206229
9216.35 0.0201405
9224.68 0.0264760
9228.84 0.0341244
9233.01 0.0483898
9237.18 0.0780051
9241.34 0.153637
9243.42 0.244429
9244.46 0.323902
9245.51 0.449385
9246.55 0.663372
9247.07 0.830704
9247.59 1.06631
9248.11 1.41103
9248.63 1.93230
9249.15 2.74964
9249.67 4.03374
9250.34 6.45322
9251.00 8.06618
9251.67 6.45197
9252.33 4.03245
9253.03 2.41784
9253.74 1.54368
9254.44 1.05148
9255.14 0.756348
9255.84 0.567605
9256.55 0.440856
9257.95 0.287207
9259.35 0.201609
9260.76 0.149308
9263.57 0.0915197
9266.38 0.0620137
9269.19 0.0449630
9272.00 0.0342175
9274.81 0.0270109
9280.43 0.0182257
9286.04 0.0132627
9291.66 0.0101752
9297.28 0.00811698
9308.52 0.00561259
9319.76 0.00419159
9342.23 0.00269898
9364.71 0.00195821
9387.18 0.00153253
9432.13 0.00108990
9477.08 0.000896134
9522.03 0.000842519
9566.98 0.000967012
9578.22 0.00107080
9589.46 0.00128192
9595.08 0.00150520
9600.69 0.00202104
9606.31 0.00434246
9609.12 0.0128562
9610.53 0.0446895
9611.23 0.157951
9611.58 0.518646
9611.76 1.45844
9611.84 3.22141
9611.89 5.41680
9611.93 9.86243
9611.97 15.8585
9612.00 19.7176
9612.03 15.8584
9612.07 9.86235
9612.12 4.83114
9612.17 2.70210
9612.28 1.14327
9612.49 0.387264
9612.91 0.114928
9613.75 0.0325083
9615.42 0.00992588
9618.77 0.00430493
9625.48 0.00427238
9628.83 0.00609364
9632.18 0.0115675
9633.86 0.0191712
9635.54 0.0403536
9636.38 0.0690434
9637.21 0.146897
9637.63 0.248900
9638.05 0.511948
9638.26 0.835958
9638.47 1.59083
9638.58 2.41705
9638.68 4.06501
9638.79 7.96816
9638.84 12.0014
9638.89 19.0092
9638.92 24.3361
9638.95 30.4891
9639.00 38.0135
9639.03 35.7281
9639.06 30.4888
9639.11 19.0089
9639.15 12.9528
9639.20 9.12488
9639.28 5.01580
9639.37 3.10958
9639.46 2.10862
9639.63 1.13670
9639.80 0.708865
9640.15 0.350005
9640.50 0.208332
9641.19 0.0984764
9641.88 0.0575680
9643.27 0.0271718
9644.66 0.0162163
9647.43 0.00827472
9650.20 0.00550465
9655.75 0.00363557
9661.29 0.00315073
9672.38 0.00335584
9683.47 0.00450745
9689.01 0.00558123
9694.56 0.00725476
9700.10 0.0100115
9705.65 0.0149764
9708.42 0.0190937
9711.19 0.0252709
9713.97 0.0351513
9716.74 0.0523821
9719.51 0.0865453
9720.90 0.117801
9722.28 0.169566
9723.67 0.264228
9724.36 0.343774
9725.05 0.464222
9725.75 0.657591
9726.44 0.991230
9726.79 1.25265
9727.13 1.61600
9727.48 2.13065
9727.83 2.85084
9728.41 4.56064
9729.00 5.70009
9729.59 4.55995
9730.17 2.85018
9730.64 1.93315
9731.10 1.35373
9731.57 0.985181
9732.03 0.742800
9732.96 0.460188
9733.89 0.310724
9734.82 0.223161
9735.75 0.167781
9737.61 0.104595
9739.47 0.0714142
9741.33 0.0519201
9743.19 0.0395369
9745.05 0.0312169
9748.77 0.0212423
9752.49 0.0163278
9756.21 0.0175185
9758.07 0.0346139
9759.00 0.101779
9759.47 0.331020
9759.70 0.991932
9759.82 2.44199
9759.88 4.61085
9759.93 10.4440
9759.97 16.7624
9760.00 20.8937
9760.03 16.7623
9760.07 10.4439
9760.12 4.66855
9760.18 2.48940
9760.30 1.01713
9760.52 0.340219
9760.98 0.103958
9761.89 0.0335137
9763.72 0.0136918
9765.54 0.00938743
9767.37 0.00754078
9771.02 0.00572084
9774.67 0.00471367
9781.97 0.00352384
9789.26 0.00282089
9803.86 0.00205072
9818.46 0.00169865
9833.06 0.00161328
9847.66 0.00192445
9854.96 0.00251384
9858.61 0.00313320
9862.26 0.00428628
9865.91 0.00677950
9867.73 0.00927294
9869.56 0.0138235
9871.38 0.0235067
9872.30 0.0330873
9873.21 0.0503632
9874.12 0.0865698
9875.03 0.183879
9875.49 0.309904
9875.95 0.629234
9876.17 1.01262
9876.40 1.88214
9876.52 2.79429
9876.63 4.52614
9876.69 6.01791
9876.74 8.29605
9876.80 11.8981
9876.86 17.6502
9876.89 22.6589
9876.93 28.2366
9877.00 35.3093
9877.04 33.1729
9877.07 28.2362
9877.14 17.6498
9877.20 11.5858
9877.26 7.91160
9877.33 5.62226
9877.39 4.18318
9877.51 2.53653
9877.63 1.69451
9877.76 1.20494
9877.88 0.901208
9878.12 0.556486
9878.37 0.376590
9878.61 0.271957
9879.10 0.160891
9879.59 0.106242
9880.08 0.0755117
9881.07 0.0439125
9882.05 0.0288500
9883.03 0.0205173
9884.99 0.0121011
9886.95 0.00814658
9888.91 0.00598108
9892.83 0.00381402
9896.76 0.00281007
9900.68 0.00226990
9908.53 0.00175502
9924.22 0.00149500
9939.91 0.00163517
9955.60 0.00219225
9963.45 0.00279732
9971.30 0.00392507
9975.22 0.00488387
9979.14 0.00635556
9983.07 0.00878015
9986.99 0.0131973
9990.91 0.0225801
9992.87 0.0318467
9994.83 0.0485439
9996.80 0.0834466
9997.78 0.117289
9998.76 0.176978
9999.74 0.297878
10000.7 0.602368
10001.2 0.964901
10001.7 1.77807
10002.0 2.64269
10002.2 4.19197
10002.3 5.62248
10002.4 7.62028
10002.6 10.6812
10002.7 15.3753
10002.8 24.4088
10003.0 30.3532
10003.2 24.4080
10003.3 15.3745
10003.5 10.0736
10003.6 7.03971
10003.7 5.11712
10003.9 3.85533
10004.1 2.38636
10004.4 1.61025
10004.6 1.15571
10004.9 0.868256
10005.4 0.540218
10005.9 0.365375
10006.5 0.264897
10007.0 0.200812
10007.5 0.157476
10008.6 0.103976
10009.6 0.0740474
10010.6 0.0554712
10011.7 0.0431580
10013.8 0.0283162
10015.9 0.0201035
10017.9 0.0150904
10020.0 0.0118219
10024.2 0.00792754
10028.4 0.00580594
10032.6 0.00452410
10036.7 0.00369928
10045.1 0.00274859
10053.4 0.00226452
10070.1 0.00189054
10086.8 0.00190624
10103.5 0.00222896
10111.9 0.00256502
10120.2 0.00317439
10124.4 0.00375634
10128.6 0.00501104
10132.8 0.0104753
10134.8 0.0303127
10135.9 0.102091
10136.4 0.342278
10136.7 1.02490
10136.8 2.49616
10136.9 4.92757
10136.9 7.02428
10136.9 11.2566
10137.0 17.3896
10137.0 22.4366
10137.0 17.3895
10137.1 11.2565
10137.1 5.52067
10137.2 3.26523
10137.3 1.38378
10137.5 0.469609
10137.9 0.143249
10138.8 0.0419842
10140.5 0.0144116
10144.0 0.00762527
10150.9 0.00729837
10157.9 0.00948013
10164.8 0.0139017
10168.3 0.0176367
10171.7 0.0232478
10175.2 0.0322608
10178.7 0.0479456
10182.1 0.0791175
10183.9 0.107552
10185.6 0.154575
10187.3 0.241059
10188.2 0.313820
10189.1 0.422536
10189.9 0.598759
10190.8 0.898226
10191.2 1.13744
10191.7 1.46289
10192.1 1.91989
10192.5 2.55722
10193.3 4.08618
10194.0 5.10312
10194.7 4.08543
10195.5 2.55649
10196.1 1.70890
10196.7 1.18961
10197.3 0.857682
10197.9 0.644995
10199.1 0.396848
10200.3 0.267606
10201.5 0.191555
10202.7 0.143676
10205.1 0.0894376
10207.6 0.0609104
10210.0 0.0442368
10212.4 0.0336250
10214.8 0.0264613
10219.6 0.0176831
10224.4 0.0127394
10229.3 0.00967607
10234.1 0.00765833
10243.8 0.00524891
10253.4 0.00393760
10272.7 0.00268031
10292.0 0.00221275
10311.3 0.00217711
10321.0 0.00234409
10330.6 0.00279222
10335.4 0.00331673
10340.3 0.00460114
10342.7 0.00625472
10345.1 0.0107169
10346.3 0.0167837
10347.5 0.0333622
10348.1 0.0561337
10348.7 0.116809
10349.3 0.396437
10349.6 1.19632
10349.8 2.93573
10349.8 5.79461
10349.9 8.79413
10349.9 13.1592
10350.0 21.5450
10350.0 26.3155
10350.0 21.5448
10350.1 13.1591
10350.1 7.88305
10350.2 4.80067
10350.3 2.22332
10350.5 0.836495
10350.7 0.432484
10350.9 0.263720
10351.2 0.126300
10351.6 0.0755136
10352.4 0.0365827
10353.2 0.0225585
10354.7 0.0122407
10356.2 0.00865872
10359.3 0.00632923
10362.3 0.00586047
10368.5 0.00661392
10374.6 0.00896847
10377.7 0.0110709
10380.7 0.0142860
10383.8 0.0195112
10386.8 0.0287887
10389.9 0.0477373
10393.0 0.0958915
10394.5 0.154082
10395.3 0.205866
10396.0 0.287302
10396.8 0.429861
10397.2 0.541483
10397.6 0.700691
10398.0 0.944220
10398.3 1.31301
10398.7 1.90581
10399.1 2.86930
10399.6 4.61677
10400.0 5.75056
10400.2 5.40361
10400.5 4.57573
10400.9 2.86884
10401.3 1.80989
10401.8 1.20954
10402.2 0.851093
10402.6 0.626232
10403.5 0.373858
10404.3 0.248016
10405.1 0.175548
10406.0 0.131169
10407.7 0.0813326
10409.4 0.0554300
10411.0 0.0404583
10412.7 0.0309483
10414.4 0.0246105
10417.8 0.0168834
10421.2 0.0125996
10427.9 0.00833405
10434.6 0.00648348
10441.4 0.00568327
10454.9 0.00571868
10468.4 0.00776737
10475.1 0.0101598
10481.8 0.0146384
10485.2 0.0184253
10488.6 0.0241464
10492.0 0.0333746
10495.3 0.0496400
10498.7 0.0823466
10500.4 0.112847
10502.1 0.163882
10503.8 0.260159
10504.6 0.342733
10505.4 0.470961
10506.3 0.687603
10506.7 0.851739
10507.1 1.07854
10507.5 1.40111
10508.0 1.87354
10508.4 2.58191
10508.8 3.64372
10509.4 5.83088
10510.0 7.28934
10510.6 5.83004
10511.2 3.64291
10511.8 2.29423
10512.3 1.51724
10512.9 1.05926
10513.5 0.778795
10514.6 0.464988
10515.7 0.307001
10516.9 0.217280
10518.0 0.161722
10520.3 0.0995737
10522.5 0.0674187
10524.8 0.0488307
10527.0 0.0370879
10529.3 0.0292042
10533.8 0.0195990
10538.4 0.0142250
10542.9 0.0109137
10547.4 0.00874669
10556.5 0.00619478
10565.5 0.00485327
10583.6 0.00376722
10601.7 0.00390323
10610.7 0.00450381
10619.8 0.00580915
10628.8 0.00876344
10633.4 0.0117260
10637.9 0.0170519
10640.2 0.0214862
10642.4 0.0281092
10644.7 0.0386777
10646.9 0.0570555
10649.2 0.0932813
10650.3 0.126236
10651.5 0.180456
10652.6 0.278620
10653.2 0.361124
10653.7 0.482561
10654.3 0.678245
10654.9 1.00297
10655.1 1.26125
10655.4 1.60345
10655.7 2.07501
10656.0 2.71952
10656.5 4.33900
10657.0 5.41375
10657.5 4.33848
10658.0 2.71901
10658.5 1.75436
10658.9 1.19094
10659.4 0.841335
10659.8 0.624465
10660.8 0.377218
10661.7 0.251908
10662.6 0.179096
10663.5 0.134169
10665.3 0.0832064
10667.1 0.0567502
10668.9 0.0413072
10670.7 0.0315252
10672.5 0.0249448
10676.1 0.0169064
10679.8 0.0124001
10687.0 0.00778942
10694.3 0.00561318
10701.5 0.00443773
10716.0 0.00332967
10730.5 0.00293010
10744.9 0.00286325
10773.9 0.00338323
10802.9 0.00501257
10817.4 0.00667306
10831.9 0.00959608
10846.4 0.0153788
10853.6 0.0206329
10860.8 0.0292730
10868.1 0.0449638
10871.7 0.0580431
10875.3 0.0777382
10878.9 0.109169
10882.6 0.163050
10884.4 0.204995
10886.2 0.263268
10888.0 0.345305
10889.8 0.460172
10892.9 0.736347
10896.0 0.922584
10897.6 0.869710
10899.1 0.741654
10902.2 0.472752
10904.2 0.354416
10906.2 0.277956
10908.2 0.232943
10910.2 0.215706
10912.2 0.233177
10913.2 0.264531
10914.2 0.324957
10915.2 0.446099
10915.7 0.551476
10916.2 0.709553
10916.7 0.970107
10917.2 1.42279
10917.7 2.27417
10918.2 3.91333
10918.6 6.25763
10919.0 7.77492
10919.4 6.19457
10919.9 3.90432
10920.2 2.74186
10920.5 1.99996
10920.8 1.50635
10921.1 1.16963
10921.7 0.756499
10922.3 0.533704
10922.9 0.397320
10923.5 0.310630
10924.7 0.208618
10925.9 0.152498
10927.1 0.118535
10929.5 0.0800833
10931.9 0.0594861
10934.3 0.0468196
10939.1 0.0321660
10944.0 0.0239895
10948.8 0.0188024
10958.4 0.0126626
10968.1 0.00921812
10977.7 0.00706180
10997.0 0.00458791
11016.3 0.00326491
11035.6 0.00247314
11074.1 0.00161199
11112.7 0.00118157
11151.2 0.000941607
11228.4 0.000721316
11305.5 0.000685167
11382.6 0.000839516
11421.2 0.00108620
11440.5 0.00132381
11459.8 0.00173852
11479.1 0.00257880
11488.7 0.00338273
11498.3 0.00480662
11508.0 0.00775024
11512.8 0.0106022
11517.6 0.0156679
11520.0 0.0198347
11522.4 0.0260568
11524.8 0.0359532
11527.3 0.0531121
11529.7 0.0868331
11530.9 0.117590
11532.1 0.167654
11533.3 0.258788
11533.9 0.333750
11534.5 0.445525
11535.1 0.624949
11535.7 0.921879
11536.0 1.14776
11536.3 1.45491
11536.6 1.87621
11536.9 2.44930
11537.5 3.92345
11538.0 4.87919
11538.6 3.89500
11539.1 2.44888
11539.6 1.66268
11540.0 1.16518
11540.4 0.848466
11540.9 0.643954
11541.7 0.398934
11542.6 0.270591
11543.5 0.194399
11544.4 0.146725
11546.1 0.0919092
11547.9 0.0631070
11549.6 0.0461750
11553.1 0.0281823
11556.6 0.0193224
11560.1 0.0143718
11567.1 0.00943838
11574.1 0.00730352
11581.1 0.00639549
11595.1 0.00651815
11609.1 0.00909429
11616.0 0.0120845
11623.0 0.0176977
11626.5 0.0224551
11630.0 0.0296955
11633.5 0.0414550
11637.0 0.0623088
11638.8 0.0794635
11640.5 0.104979
11642.3 0.145288
11644.0 0.213874
11645.8 0.346593
11646.6 0.465260
11647.5 0.653300
11648.4 0.984733
11649.3 1.62381
11649.7 2.19629
11650.1 3.07240
11650.6 4.53892
11651.0 6.91442
11651.5 11.0755
11652.0 13.8546
11652.3 13.0362
11652.5 11.0744
11653.0 6.91332
11653.4 4.53804
11653.9 3.09740
11654.3 2.21186
11654.7 1.65512
11655.6 1.01014
11656.4 0.675681
11657.3 0.482159
11658.1 0.360788
11659.8 0.223378
11661.5 0.151396
11663.2 0.109551
11664.9 0.0829748
11666.6 0.0650584
11670.0 0.0431141
11673.4 0.0307732
11676.8 0.0231319
11680.2 0.0180753
11687.0 0.0120048
11693.8 0.00865034
11700.7 0.00660128
11707.5 0.00526552
11721.1 0.00369658
11734.7 0.00286864
11761.9 0.00217678
11789.1 0.00220310
11802.7 0.00251871
11816.3 0.00322997
11829.9 0.00486718
11836.8 0.00652242
11843.6 0.00952027
11847.0 0.0120270
11850.4 0.0157968
11853.8 0.0218579
11857.2 0.0325137
11860.6 0.0539778
11864.0 0.107237
11865.7 0.169676
11866.5 0.223383
11867.4 0.306664
11868.2 0.444905
11868.7 0.551705
11869.1 0.695421
11869.5 0.904015
11869.9 1.20094
11870.4 1.65417
11870.8 2.31258
11871.4 3.70308
11872.0 4.60654
11872.3 4.33324
11872.6 3.67875
11873.2 2.31212
11873.6 1.66670
11874.0 1.23542
11874.9 0.728505
11875.7 0.471328
11876.5 0.328621
11877.3 0.240450
11878.1 0.183227
11879.7 0.116589
11881.3 0.0804714
11882.9 0.0590245
11886.1 0.0357837
11889.4 0.0241406
11892.6 0.0175426
11895.8 0.0134816
11899.1 0.0108582
11905.5 0.00802019
11912.0 0.00757848
11915.2 0.00890918
11918.4 0.0139079
11920.0 0.0212923
11921.6 0.0420128
11922.5 0.0702238
11923.3 0.144794
11923.7 0.243608
11924.1 0.486736
11924.3 0.774028
11924.5 1.41167
11924.7 3.26902
11924.8 5.77905
11924.8 8.08019
11924.9 12.1713
11924.9 15.6456
11924.9 19.1499
11925.0 24.4013
11925.0 22.3957
11925.1 19.1497
11925.1 12.1711
11925.2 7.03720
11925.3 4.27776
11925.4 2.81938
11925.5 1.98099
11925.6 1.12075
11925.8 0.716665
11926.1 0.364422
11926.4 0.223343
11927.0 0.107205
11927.7 0.0638540
11928.9 0.0308123
11930.2 0.0187205
11932.8 0.00975799
11935.3 0.00647693
11937.8 0.00487103
11940.4 0.00394722
11945.4 0.00294156
11955.6 0.00206253
11965.7 0.00165064
11986.0 0.00124408
12006.3 0.00104522
12046.9 0.000868362
12087.5 0.000814825
12168.7 0.000897302
12189.0 0.000978006
12209.3 0.00115940
12219.4 0.00138065
12229.6 0.00196932
12234.7 0.00276747
12239.7 0.00499618
12242.3 0.00807040
12244.8 0.0166199
12246.1 0.0283052
12247.3 0.0603803
12248.0 0.103534
12248.6 0.215549
12248.9 0.359314
12249.2 0.695750
12249.4 1.08911
12249.6 1.92654
12249.7 4.16240
12249.8 6.84866
12249.9 11.8464
12249.9 18.6398
12250.0 23.7519
12250.0 21.7996
12250.1 18.6396
12250.1 11.8462
12250.2 6.40416
12250.3 3.72412
12250.4 2.38654
12250.5 1.71008
12250.7 0.936693
12250.8 0.601348
12251.2 0.301873
12251.5 0.183248
12252.2 0.0867946
12252.9 0.0510162
12254.3 0.0239473
12255.7 0.0141254
12258.5 0.00695040
12261.3 0.00439969
12266.8 0.00256968
12272.4 0.00193818
12283.5 0.00151401
12294.6 0.00139908
12339.0 0.00150080
12383.5 0.00189444
12405.7 0.00228995
12416.8 0.00294466
12422.4 0.00495813
12425.2 0.0124636
12426.5 0.0406016
12427.2 0.138765
12427.6 0.451714
12427.8 1.20990
12427.8 2.66653
12427.9 4.20561
12427.9 8.12851
12428.0 12.3738
12428.0 16.3433
12428.0 12.3738
12428.1 8.12846
12428.1 3.72547
12428.2 2.18196
12428.3 0.979659
12428.5 0.334960
12428.9 0.100312
12429.7 0.0293902
12431.4 0.00955909
12434.7 0.00441633
12441.4 0.00322232
12454.8 0.00322637
12481.4 0.00415418
12494.8 0.00498071
12508.1 0.00644516
12514.8 0.00787951
12521.5 0.0110848
12524.8 0.0149970
12526.5 0.0187072
12528.1 0.0252228
12529.8 0.0387745
12531.5 0.0749217
12532.3 0.122794
12533.1 0.245081
12533.5 0.397759
12534.0 0.746727
12534.2 1.13646
12534.4 1.92196
12534.5 2.68591
12534.6 3.81523
12534.7 5.70757
12534.7 7.11604
12534.8 9.11912
12534.8 11.7810
12534.9 14.4947
12535.0 18.2668
12535.1 16.9538
12535.1 14.4944
12535.2 9.11893
12535.3 6.50624
12535.4 4.82708
12535.5 2.87022
12535.7 1.81766
12535.8 1.27382
12535.9 0.920859
12536.1 0.708205
12536.4 0.449881
12536.7 0.311628
12537.0 0.229346
12537.5 0.140655
12538.1 0.0965103
12538.7 0.0714615
12539.9 0.0456807
12541.0 0.0334877
12542.2 0.0268934
12544.5 0.0206994
12549.1 0.0178939
12553.7 0.0200201
12558.4 0.0270159
12560.7 0.0341601
12563.0 0.0468037
12565.3 0.0724961
12566.5 0.0965626
12567.6 0.137023
12568.8 0.214557
12569.4 0.282567
12570.0 0.390236
12570.5 0.574392
12571.1 0.923716
12571.4 1.22426
12571.7 1.68254
12572.0 2.40528
12572.3 3.50329
12572.6 5.63994
12573.0 7.01724
12573.4 5.57799
12573.7 3.50310
12574.1 2.25536
12574.4 1.53542
12574.7 1.09610
12575.0 0.815961
12575.7 0.495682
12576.3 0.334348
12577.0 0.240290
12577.6 0.182589
12578.9 0.117446
12580.2 0.0834274
12581.5 0.0637021
12584.0 0.0431446
12586.6 0.0333436
12589.2 0.0281581
12594.3 0.0236443
12604.6 0.0234127
12609.8 0.0268313
12612.4 0.0355020
12613.7 0.0649375
12614.3 0.166528
12614.6 0.482288
12614.8 1.27146
12614.9 2.67765
12614.9 4.34705
12614.9 8.16115
12615.0 16.1847
12615.1 8.16117
12615.1 3.37424
12615.2 1.63325
12615.3 0.621319
12615.6 0.216419
12616.2 0.0809790
12617.2 0.0421767
12619.4 0.0329394
12623.7 0.0335138
12632.4 0.0422255
12641.0 0.0572279
12649.7 0.0830523
12658.3 0.132282
12662.7 0.175276
12667.0 0.242739
12671.3 0.357253
12673.5 0.446538
12675.7 0.571301
12677.8 0.753216
12680.0 1.02536
12682.1 1.44655
12684.3 2.10149
12687.2 3.37197
12690.0 4.22238
12692.9 3.37002
12695.7 2.09959
12698.2 1.36788
12700.7 0.928427
12703.2 0.660370
12705.7 0.490126
12710.6 0.296835
12715.6 0.197774
12720.6 0.140693
12725.6 0.105121
12735.5 0.0649946
12745.4 0.0441247
12755.4 0.0319428
12765.3 0.0242309
12775.3 0.0190555
12795.2 0.0127801
12815.1 0.00938848
12835.0 0.00807827
12839.9 0.00856523
12844.9 0.0107314
12847.4 0.0140694
12849.9 0.0236641
12851.1 0.0369765
12852.4 0.0732191
12853.0 0.121052
12853.6 0.245600
12853.9 0.400323
12854.2 0.768882
12854.4 1.19724
12854.5 2.01827
12854.7 4.21603
12854.8 6.72678
12854.9 10.9921
12854.9 14.0179
12854.9 17.8594
12855.0 21.9544
12855.1 17.8592
12855.1 10.9919
12855.2 7.16808
12855.3 4.70545
12855.4 3.26469
12855.4 2.37638
12855.6 1.40524
12855.7 0.922350
12856.0 0.482999
12856.3 0.301430
12856.8 0.147558
12857.4 0.0891979
12858.5 0.0441459
12859.6 0.0276434
12861.8 0.0152659
12864.0 0.0107773
12868.4 0.00738091
12872.9 0.00606114
12881.7 0.00490570
12890.6 0.00432957
12926.0 0.00329966
12943.7 0.00312923
12961.4 0.00328726
12970.2 0.00371615
12979.1 0.00507484
12983.5 0.00700681
12985.7 0.00893450
12987.9 0.0124429
12990.2 0.0199209
12992.4 0.0404238
12993.5 0.0679226
12994.6 0.139993
12995.1 0.233430
12995.7 0.459921
12996.0 0.727866
12996.2 1.28229
12996.4 1.84805
12996.5 2.85786
12996.7 4.84517
12996.7 6.55548
12996.8 8.78929
12996.9 13.9737
12997.0 17.6117
12997.1 16.3455
12997.1 13.9735
12997.2 8.78903
12997.3 5.26888
12997.5 3.28895
12997.6 2.20574
12997.7 1.61040
12997.9 0.938048
12998.1 0.610338
12998.4 0.421894
12998.6 0.312583
12999.1 0.191392
12999.5 0.128406
13000.0 0.0929373
13000.9 0.0555817
13001.9 0.0372146
13002.8 0.0269596
13004.6 0.0165532
13006.5 0.0115989
13008.3 0.00888842
13012.1 0.00616321
13015.8 0.00490599
13019.5 0.00423883
13026.9 0.00363435
13041.7 0.00347128
13056.6 0.00398588
13071.4 0.00543855
13078.8 0.00694701
13086.2 0.00969876
13093.6 0.0154950
13097.4 0.0211374
13101.1 0.0311013
13104.8 0.0513824
13108.5 0.102981
13110.3 0.165490
13111.3 0.220704
13112.2 0.307518
13113.1 0.458566
13113.6 0.576637
13114.0 0.744498
13114.5 0.998737
13115.0 1.38276
13115.4 1.99498
13115.9 2.97966
13116.4 4.76044
13117.0 5.94499
13117.6 4.75994
13118.1 2.97917
13118.7 1.76192
13119.3 1.11311
13120.0 0.753144
13120.6 0.541770
13121.2 0.404994
13121.8 0.314785
13123.0 0.204690
13124.2 0.143591
13125.4 0.106338
13127.8 0.0652680
13130.2 0.0443785
13132.7 0.0323479
13135.1 0.0248025
13137.5 0.0197671
13142.3 0.0136805
13147.2 0.0103143
13156.9 0.00696500
13166.6 0.00550171
13176.2 0.00484910
13195.6 0.00477409
13215.0 0.00611805
13224.7 0.00770802
13234.3 0.0106674
13244.0 0.0169186
13248.9 0.0230004
13253.7 0.0338178
13256.1 0.0427721
13258.6 0.0561276
13261.0 0.0774567
13263.4 0.114712
13265.8 0.188928
13268.2 0.371720
13269.5 0.583961
13270.1 0.766970
13270.7 1.04397
13271.3 1.50684
13271.9 2.31891
13272.2 2.99884
13272.5 3.94681
13272.8 5.33029
13273.1 7.34170
13273.5 11.7160
13274.0 14.6207
13274.5 11.7153
13274.9 7.34137
13275.4 4.43791
13275.9 2.84813
13276.4 1.94815
13276.8 1.40528
13277.3 1.05757
13277.8 0.823267
13278.8 0.541070
13279.7 0.381875
13280.7 0.285651
13282.6 0.179156
13284.5 0.125639
13286.4 0.0962421
13290.2 0.0704414
13294.1 0.0701309
13296.0 0.0805487
13297.9 0.104286
13299.8 0.158344
13300.8 0.211541
13301.7 0.303518
13302.7 0.486246
13303.6 0.915013
13304.1 1.39293
13304.6 2.36307
13304.8 3.25977
13305.1 4.73128
13305.2 5.82774
13305.3 7.29137
13305.4 9.25558
13305.5 11.6190
13305.6 14.8737
13305.8 18.5964
13306.0 23.2538
13306.1 21.8830
13306.2 18.5953
13306.5 11.6176
13306.7 7.01500
13307.0 4.57475
13307.2 3.16573
13307.5 2.30270
13307.7 1.72462
13307.9 1.35005
13308.4 0.889980
13308.9 0.626267
13309.4 0.467636
13310.4 0.290426
13311.3 0.198326
13312.3 0.144956
13314.2 0.0888177
13316.2 0.0610701
13318.1 0.0454285
13322.0 0.0291369
13325.8 0.0212774
13329.7 0.0169656
13337.4 0.0131475
13345.2 0.0131173
13349.1 0.0147563
13352.9 0.0185547
13356.8 0.0273371
13358.7 0.0361762
13360.7 0.0519241
13362.6 0.0842575
13364.5 0.166087
13365.5 0.265035
13366.0 0.353245
13366.5 0.490458
13367.0 0.731328
13367.2 0.917614
13367.4 1.18160
13367.7 1.56940
13367.9 2.16164
13368.2 3.09830
13368.4 4.59238
13368.7 7.37197
13369.0 9.23616
13369.2 8.68671
13369.3 7.37152
13369.6 4.59191
13369.9 2.95523
13370.1 2.01525
13370.4 1.43928
13370.7 1.07076
13371.2 0.646881
13371.7 0.433531
13372.2 0.308410
13372.8 0.231778
13373.8 0.144931
13374.8 0.0992471
13375.9 0.0727766
13378.0 0.0444769
13380.1 0.0305418
13382.2 0.0226627
13386.3 0.0145288
13390.5 0.0106233
13394.7 0.00845399
13403.1 0.00628558
13411.4 0.00535011
13419.8 0.00497922
13436.5 0.00524380
13453.2 0.00700958
13461.6 0.00900189
13470.0 0.0127088
13474.1 0.0158327
13478.3 0.0205447
13482.5 0.0281264
13486.7 0.0414427
13490.9 0.0680727
13495.0 0.133806
13497.1 0.210164
13498.2 0.275715
13499.2 0.375592
13500.3 0.541183
13500.8 0.664917
13501.3 0.833499
13501.8 1.07449
13502.4 1.41455
13502.9 1.91131
13503.4 2.63487
13504.2 4.22202
13505.0 5.28289
13505.4 4.97032
13505.8 4.22139
13506.6 2.63427
13507.3 1.67726
13508.1 1.11868
13508.8 0.785863
13509.6 0.577498
13511.0 0.346032
13512.5 0.229684
13514.0 0.162917
13515.5 0.121770
13518.4 0.0754769
13521.4 0.0515379
13524.3 0.0377170
13527.3 0.0290482
13530.2 0.0233209
13536.1 0.0168071
13542.0 0.0147462
13545.0 0.0161066
13547.9 0.0226772
13549.4 0.0327073
13550.9 0.0607917
13551.6 0.0985471
13552.4 0.198067
13553.1 0.626733
13553.3 0.984249
13553.5 1.69495
13553.7 3.49583
13553.7 5.54308
13553.8 7.40010
13553.8 9.99078
13553.9 12.8409
13553.9 16.0140
13554.0 19.9607
13554.1 16.0138
13554.2 9.99051
13554.3 5.86199
13554.3 3.84740
13554.4 2.67576
13554.5 1.95347
13554.7 1.12890
13554.8 0.748370
13555.2 0.390756
13555.5 0.243439
13556.1 0.119981
13556.8 0.0731372
13558.1 0.0370174
13559.4 0.0236922
13562.0 0.0135446
13564.6 0.00971498
13569.9 0.00660536
13575.1 0.00525840
13585.5 0.00396414
13596.0 0.00330997
13616.9 0.00265760
13637.8 0.00237510
13679.6 0.00227906
13721.4 0.00256478
13763.2 0.00329172
13784.2 0.00395042
13805.1 0.00501317
13826.0 0.00696734
13836.4 0.00870160
13846.9 0.0116047
13857.3 0.0172661
13862.6 0.0225086
13867.8 0.0314428
13873.0 0.0488567
13875.6 0.0645725
13878.2 0.0903538
13880.8 0.137210
13882.2 0.176268
13883.5 0.234414
13884.8 0.327354
13886.1 0.483743
13886.7 0.606024
13887.4 0.771633
13888.0 1.00122
13888.7 1.31714
13889.8 2.10593
13891.0 2.62519
13892.2 2.09850
13893.3 1.31712
13894.4 0.844683
13895.5 0.567339
13896.5 0.401423
13897.6 0.298053
13899.7 0.182094
13901.9 0.123366
13904.0 0.0898397
13906.1 0.0692319
13910.4 0.0463616
13914.7 0.0348298
13918.9 0.0284487
13927.5 0.0225570
13936.0 0.0208764
13944.5 0.0213444
13961.6 0.0269587
13978.6 0.0408944
13987.2 0.0539070
13995.7 0.0751454
14004.2 0.112677
14008.5 0.143051
14012.8 0.187136
14017.0 0.254284
14021.3 0.361233
14025.5 0.540386
14027.7 0.673445
14029.8 0.846182
14034.4 1.34906
14039.0 1.68225
14041.3 1.58387
14043.6 1.34799
14048.2 0.845217
14052.2 0.555237
14056.2 0.379671
14060.1 0.271513
14064.1 0.202461
14072.1 0.124139
14080.0 0.0841918
14080.0 0.154638
15000.0 0.147193
17000.0 0.133336
20000.0 0.117004
25000.0 0.0974686
30000.0 0.0837417
35000.0 0.0734822
40000.0 0.0656258
50000.0 0.0544743
60000.0 0.0472534
70000.0 0.0420411
80000.0 0.0381733
99999.9 0.0329636
100000 0.0329029
150000 0.0260833
200000 0.0227736
250000 0.0207229
300000 0.0192531
392807 0.0173277
446404 0.0162578
500000 0.0153648
512500 0.0152526
525000 0.0151438
537500 0.0150384
550000 0.0149361
562500 0.0148368
575000 0.0147403
587500 0.0146464
600000 0.0145552
612500 0.0144663
625000 0.0143798
637500 0.0142955
650000 0.0142133
662500 0.0141332
675000 0.0140550
687500 0.0139786
700000 0.0139040
712500 0.0138547
725000 0.0138064
737500 0.0137592
750000 0.0137128
762500 0.0136674
775000 0.0136229
787500 0.0135792
800000 0.0135364
820783 0.0134921
841566 0.0134490
862349 0.0134071
883132 0.0133663
900000 0.0131643
912500 0.0131178
925000 0.0130720
937500 0.0130271
950000 0.0129828
962500 0.0129393
975000 0.0128966
987500 0.0128544
1.00000E+06 0.0128130
1.06082E+06 0.0128534
1.12163E+06 0.0128917
1.18245E+06 0.0129281
1.24326E+06 0.0129627
1.24327E+06 0.0129627
1.25000E+06 0.0129386
1.27159E+06 0.0128764
1.32869E+06 0.0127241
1.38580E+06 0.0125799
1.44290E+06 0.0124431
1.50000E+06 0.0123130
1.56250E+06 0.0124092
1.62500E+06 0.0125023
1.68750E+06 0.0125926
1.75000E+06 0.0126802
1.75918E+06 0.0126978
1.75918E+06 0.0126976
1.79155E+06 0.0114710
1.79156E+06 0.0114710
1.86743E+06 0.0108094
1.94330E+06 0.0102102
2.00000E+06 0.00990786
2.02018E+06 0.00981952
2.13059E+06 0.00871506
2.24100E+06 0.00778160
2.35141E+06 0.00698609
2.46182E+06 0.00630303
2.58972E+06 0.00562633
2.71762E+06 0.00504987
2.85881E+06 0.00450771
3.00000E+06 0.00404586
3.22371E+06 0.00343331
3.46410E+06 0.00291351
3.72242E+06 0.00247240
4.00000E+06 0.00209808
4.22949E+06 0.00186433
4.47214E+06 0.00165662
4.72871E+06 0.00149640
5.00000E+06 0.00135167
5.47723E+06 0.00120888
6.00000E+06 0.00115144
6.48074E+06 0.00117809
7.00000E+06 0.00126267
7.19730E+06 0.00127292
7.39099E+06 0.00128279
7.48331E+06 0.00128743
8.00000E+06 0.00134268
8.01321E+06 0.00134162
8.02641E+06 0.00134056
8.03962E+06 0.00133951
8.05282E+06 0.00133846
8.06603E+06 0.00133741
8.07923E+06 0.00133636
8.09244E+06 0.00133531
8.10565E+06 0.00133427
8.11885E+06 0.00133323
8.13206E+06 0.00133220
8.14526E+06 0.00133116
8.15847E+06 0.00133013
8.17167E+06 0.00132910
8.18488E+06 0.00132807
8.19809E+06 0.00132705
8.21129E+06 0.00132602
8.23126E+06 0.00132448
8.25123E+06 0.00132295
8.27120E+06 0.00132142
8.29116E+06 0.00131989
8.31113E+06 0.00131837
8.33110E+06 0.00131686
8.35107E+06 0.00131535
8.37104E+06 0.00131385
8.39100E+06 0.00131235
8.41097E+06 0.00131086
8.43094E+06 0.00130937
8.45091E+06 0.00130789
8.47088E+06 0.00130641
8.49084E+06 0.00130494
8.51081E+06 0.00130347
8.53078E+06 0.00130201
8.56011E+06 0.00129987
8.58943E+06 0.00129774
8.61876E+06 0.00129563
8.64809E+06 0.00129352
8.67741E+06 0.00129143
8.70674E+06 0.00128934
8.73606E+06 0.00128727
8.76539E+06 0.00128520
8.79472E+06 0.00128315
8.82404E+06 0.00128111
8.85337E+06 0.00127907
8.88270E+06 0.00127705
8.91202E+06 0.00127503
8.94135E+06 0.00127303
8.97067E+06 0.00127104
9.00000E+06 0.00126905
9.06678E+06 0.00126014
9.13356E+06 0.00125135
9.20034E+06 0.00124269
9.26712E+06 0.00123416
9.33389E+06 0.00122574
9.40067E+06 0.00121744
9.46745E+06 0.00120925
9.53423E+06 0.00120117
9.61502E+06 0.00119155
9.69581E+06 0.00118208
9.77186E+06 0.00117331
9.84791E+06 0.00116467
9.92395E+06 0.00115616
1.00000E+07 0.00114778
1.00465E+07 0.00114377
1.00930E+07 0.00113979
1.01395E+07 0.00113585
1.01860E+07 0.00113193
1.02324E+07 0.00112805
1.02789E+07 0.00112420
1.03254E+07 0.00112037
1.03719E+07 0.00111658
1.03915E+07 0.00111499
1.04112E+07 0.00111340
1.04308E+07 0.00111182
1.04504E+07 0.00111024
1.04701E+07 0.00110867
1.04897E+07 0.00110711
1.05093E+07 0.00110555
1.05289E+07 0.00110399
1.05486E+07 0.00110244
1.05682E+07 0.00110089
1.05878E+07 0.00109935
1.06074E+07 0.00109782
1.06271E+07 0.00109629
1.06467E+07 0.00109476
1.06663E+07 0.00109324
1.06860E+07 0.00109173
1.07056E+07 0.00109022
1.07252E+07 0.00108871
1.07448E+07 0.00108721
1.07645E+07 0.00108571
1.07841E+07 0.00108422
1.08037E+07 0.00108273
1.08234E+07 0.00108125
1.08430E+07 0.00107977
1.08626E+07 0.00107830
1.08822E+07 0.00107683
1.09019E+07 0.00107537
1.09215E+07 0.00107391
1.09411E+07 0.00107246
1.09608E+07 0.00107101
1.09804E+07 0.00106956
1.10000E+07 0.00106812
1.10313E+07 0.00106661
1.10625E+07 0.00106511
1.10938E+07 0.00106361
1.11250E+07 0.00106212
1.11563E+07 0.00106063
1.11875E+07 0.00105915
1.12188E+07 0.00105768
1.12500E+07 0.00105621
1.12813E+07 0.00105475
1.13125E+07 0.00105329
1.13438E+07 0.00105185
1.13750E+07 0.00105040
1.14063E+07 0.00104897
1.14375E+07 0.00104754
1.14688E+07 0.00104611
1.15000E+07 0.00104469
1.15313E+07 0.00104328
1.15625E+07 0.00104187
1.15938E+07 0.00104047
1.16250E+07 0.00103907
1.16563E+07 0.00103768
1.16875E+07 0.00103629
1.17188E+07 0.00103491
1.17500E+07 0.00103354
1.17813E+07 0.00103217
1.18125E+07 0.00103081
1.18438E+07 0.00102945
1.18750E+07 0.00102810
1.19063E+07 0.00102675
1.19375E+07 0.00102541
1.19688E+07 0.00102407
1.20000E+07 0.00102274
1.20625E+07 0.00102146
1.21250E+07 0.00102018
1.21875E+07 0.00101891
1.22500E+07 0.00101766
1.23125E+07 0.00101640
1.23750E+07 0.00101516
1.24375E+07 0.00101392
1.25000E+07 0.00101270
1.25625E+07 0.00101148
1.26250E+07 0.00101026
1.26875E+07 0.00100906
1.27500E+07 0.00100786
1.28125E+07 0.00100667
1.28750E+07 0.00100549
1.29375E+07 0.00100431
1.30000E+07 0.00100314
1.30625E+07 0.00100307
1.31250E+07 0.00100299
1.31875E+07 0.00100292
1.32500E+07 0.00100285
1.33125E+07 0.00100277
1.33750E+07 0.00100270
1.34375E+07 0.00100263
1.35000E+07 0.00100256
1.35625E+07 0.00100249
1.36250E+07 0.00100242
1.36875E+07 0.00100235
1.37500E+07 0.00100228
1.38125E+07 0.00100221
1.38750E+07 0.00100214
1.39375E+07 0.00100207
1.40000E+07 0.00100200
1.40625E+07 0.00100283
1.41250E+07 0.00100367
1.41875E+07 0.00100449
1.42500E+07 0.00100532
1.43125E+07 0.00100614
1.43750E+07 0.00100696
1.44375E+07 0.00100778
1.45000E+07 0.00100859
1.45625E+07 0.00100940
1.46250E+07 0.00101021
1.46875E+07 0.00101102
1.47500E+07 0.00101182
1.48125E+07 0.00101262
1.48750E+07 0.00101341
1.49375E+07 0.00101421
1.50000E+07 0.00101500
1.51191E+07 0.00101791
1.52382E+07 0.00102081
1.53573E+07 0.00102369
1.54764E+07 0.00102656
1.55955E+07 0.00102942
1.57146E+07 0.00103226
1.58337E+07 0.00103509
1.59528E+07 0.00103790
1.60000E+07 0.00103901
1.61250E+07 0.00104322
1.62500E+07 0.00104742
1.63750E+07 0.00105160
1.65000E+07 0.00105576
1.66250E+07 0.00105991
1.67500E+07 0.00106405
1.68750E+07 0.00106817
1.70000E+07 0.00107227
1.70313E+07 0.00107357
1.70625E+07 0.00107486
1.70938E+07 0.00107615
1.71250E+07 0.00107745
1.71563E+07 0.00107874
1.71875E+07 0.00108003
1.72188E+07 0.00108132
1.72500E+07 0.00108261
1.72813E+07 0.00108390
1.73125E+07 0.00108519
1.73438E+07 0.00108647
1.73750E+07 0.00108776
1.74063E+07 0.00108904
1.74375E+07 0.00109033
1.74688E+07 0.00109161
1.75000E+07 0.00109290
1.75313E+07 0.00109418
1.75625E+07 0.00109546
1.75938E+07 0.00109674
1.76250E+07 0.00109802
1.76563E+07 0.00109930
1.76875E+07 0.00110058
1.77188E+07 0.00110186
1.77500E+07 0.00110313
1.77813E+07 0.00110441
1.78125E+07 0.00110568
1.78438E+07 0.00110696
1.78750E+07 0.00110823
1.79063E+07 0.00110951
1.79375E+07 0.00111078
1.79688E+07 0.00111205
1.80000E+07 0.00111332
1.80625E+07 0.00111634
1.81250E+07 0.00111936
1.81875E+07 0.00112237
1.82500E+07 0.00112538
1.83125E+07 0.00112839
1.83750E+07 0.00113140
1.84375E+07 0.00113440
1.85000E+07 0.00113741
1.85625E+07 0.00114041
1.86250E+07 0.00114341
1.86875E+07 0.00114640
1.87500E+07 0.00114940
1.88125E+07 0.00115239
1.88750E+07 0.00115538
1.89375E+07 0.00115837
1.90000E+07 0.00116135
1.91250E+07 0.00116814
1.92500E+07 0.00117492
1.93750E+07 0.00118170
1.95000E+07 0.00118847
1.96250E+07 0.00119524
1.97500E+07 0.00120201
1.98750E+07 0.00120877
2.00000E+07 0.00121552