Y-91(n,tot) ENDF/B-VII.1
Energy(eV) XS(b)
1.00000E-05 76.1200
1.25000E-05 68.6855
1.50000E-05 63.1976
2.00000E-05 55.4944
2.75000E-05 48.1648
3.50000E-05 43.3410
4.25000E-05 39.8586
5.00000E-05 37.1927
6.25000E-05 33.8679
7.50000E-05 31.4136
0.000100000 27.9686
0.000125000 25.6177
0.000150000 23.8823
0.000200000 21.4463
0.000275000 19.1285
0.000350000 17.6031
0.000425000 16.5018
0.000500000 15.6588
0.000625000 14.6074
0.000750000 13.8313
0.00100000 12.7419
0.00125000 11.9985
0.00150000 11.4497
0.00200000 10.6794
0.00275000 9.94643
0.00350000 9.46406
0.00425000 9.11583
0.00500000 8.84923
0.00625000 8.51676
0.00750000 8.27134
0.0100000 7.92684
0.0125000 7.69175
0.0150000 7.51821
0.0200000 7.27461
0.0253000 7.10000
0.0314750 6.95517
0.0376500 6.84763
0.0500000 6.69585
0.0625000 6.59071
0.0750000 6.51310
0.100000 6.40416
0.125000 6.32981
0.150000 6.27494
0.200000 6.19790
0.275000 6.12461
0.350000 6.07637
0.500000 6.01489
0.750000 5.95711
1.00000 5.92266
1.50000 5.88180
2.00000 5.85744
2.75000 5.83426
3.50000 5.81901
5.00000 5.79957
7.50000 5.78130
10.0000 5.77041
15.0000 5.75749
20.0000 5.74978
27.5000 5.74246
35.0000 5.73763
50.0000 5.73149
75.0000 5.72571
100.000 5.72226
150.000 5.71818
200.000 5.71574
290.000 5.71307
380.000 5.71142
380.000 13.8978
400.000 13.7028
500.000 12.9149
600.000 12.3381
720.000 11.8160
800.000 11.5376
1000.00 11.0005
1250.00 10.5290
1500.00 10.1883
1700.00 9.97582
2000.00 9.72450
2500.00 9.42177
3000.00 9.20832
3500.00 9.05011
4000.00 8.92871
5000.00 8.75673
6000.00 8.64312
7000.00 8.56499
8000.00 8.51030
10000.0 8.44402
12500.0 8.40811
15000.0 8.40016
17000.0 8.40534
20000.0 8.42446
25000.0 8.47236
30000.0 8.52895
35000.0 8.58780
40000.0 8.64625
50000.0 8.75748
60000.0 8.85841
70000.0 8.94856
80000.0 9.02863
99999.9 9.16208
100000 9.14896
150000 9.28981
200000 9.28209
250000 9.18631
300000 9.03897
500000 8.26988
561765 8.02522
660245 7.64978
700000 7.50486
750000 7.31838
800000 7.15884
850000 6.99040
900000 6.83970
936072 6.73101
1.00000E+06 6.54644
1.10004E+06 6.26517
1.20007E+06 6.03079
1.25000E+06 5.91542
1.31988E+06 5.76212
1.31989E+06 5.76210
1.40497E+06 5.58324
1.49005E+06 5.42544
1.49005E+06 5.42543
1.50000E+06 5.40725
1.56305E+06 5.29553
1.56305E+06 5.29552
1.56518E+06 5.29187
1.59743E+06 5.23713
1.59743E+06 5.23713
1.67372E+06 5.11029
1.75000E+06 4.99789
1.83607E+06 4.87502
1.92213E+06 4.76368
2.00000E+06 4.66788
2.00237E+06 4.66508
2.00238E+06 4.66507
2.08953E+06 4.56583
2.08953E+06 4.56583
2.15272E+06 4.49854
2.15272E+06 4.49854
2.18700E+06 4.46343
2.18700E+06 4.46343
2.23118E+06 4.41967
2.23119E+06 4.41966
2.30469E+06 4.35039
2.30469E+06 4.35038
2.37183E+06 4.29069
2.43896E+06 4.23456
2.43897E+06 4.23456
2.50145E+06 4.18508
2.50145E+06 4.18508
2.55807E+06 4.14253
2.55807E+06 4.14253
2.59852E+06 4.11342
2.60064E+06 4.11192
2.65974E+06 4.07155
2.71884E+06 4.03298
2.81085E+06 3.97734
2.90185E+06 3.92821
2.99284E+06 3.88158
2.99284E+06 3.88158
3.00000E+06 3.87820
3.01306E+06 3.87207
3.01307E+06 3.87207
3.04593E+06 3.85724
3.07879E+06 3.84267
3.10660E+06 3.83105
3.13440E+06 3.81960
3.15867E+06 3.81032
3.18293E+06 3.80116
3.20720E+06 3.79209
3.23146E+06 3.78313
3.23146E+06 3.78313
3.26281E+06 3.77238
3.29163E+06 3.76308
3.32044E+06 3.75389
3.35684E+06 3.74305
3.37694E+06 3.73980
3.39704E+06 3.73658
3.41714E+06 3.73338
3.43724E+06 3.73021
3.45733E+06 3.72706
3.47743E+06 3.72394
3.49753E+06 3.72084
3.51763E+06 3.71776
3.53773E+06 3.71471
3.55783E+06 3.71168
3.57793E+06 3.70867
3.59803E+06 3.70569
3.61812E+06 3.70273
3.63822E+06 3.69979
3.65832E+06 3.69687
3.67842E+06 3.69397
3.69852E+06 3.69109
3.71862E+06 3.68824
3.73872E+06 3.68540
3.75882E+06 3.68259
3.77891E+06 3.67979
3.79901E+06 3.67702
3.81911E+06 3.67426
3.83921E+06 3.67152
3.85931E+06 3.66881
3.87941E+06 3.66611
3.89951E+06 3.66343
3.91961E+06 3.66077
3.93970E+06 3.65812
3.95980E+06 3.65550
3.97990E+06 3.65289
4.00000E+06 3.65030
4.11102E+06 3.66574
4.22203E+06 3.68086
4.31928E+06 3.69378
4.41652E+06 3.70647
4.51377E+06 3.71894
4.61102E+06 3.73119
4.70826E+06 3.74323
4.80551E+06 3.75508
4.90275E+06 3.76674
5.00000E+06 3.77820
5.02863E+06 3.78609
5.05727E+06 3.79394
5.08591E+06 3.80177
5.11455E+06 3.80957
5.14319E+06 3.81734
5.17183E+06 3.82509
5.20047E+06 3.83281
5.22911E+06 3.84050
5.25774E+06 3.84816
5.28638E+06 3.85579
5.31502E+06 3.86341
5.34366E+06 3.87099
5.37230E+06 3.87855
5.40094E+06 3.88609
5.42958E+06 3.89360
5.45822E+06 3.90109
5.49208E+06 3.90990
5.52594E+06 3.91868
5.55980E+06 3.92743
5.59366E+06 3.93614
5.62752E+06 3.94482
5.66138E+06 3.95347
5.69524E+06 3.96208
5.72911E+06 3.97066
5.76297E+06 3.97921
5.79683E+06 3.98773
5.83069E+06 3.99622
5.86455E+06 4.00468
5.89841E+06 4.01310
5.93227E+06 4.02150
5.96613E+06 4.02986
6.00000E+06 4.03820
6.03125E+06 4.04581
6.06250E+06 4.05339
6.09375E+06 4.06096
6.12500E+06 4.06850
6.15625E+06 4.07600
6.18750E+06 4.08349
6.21875E+06 4.09096
6.25000E+06 4.09839
6.28125E+06 4.10581
6.31250E+06 4.11320
6.34375E+06 4.12057
6.37500E+06 4.12793
6.40625E+06 4.13525
6.43750E+06 4.14255
6.46875E+06 4.14983
6.48074E+06 4.15262
6.50000E+06 4.15708
6.53125E+06 4.16432
6.56250E+06 4.17153
6.59375E+06 4.17872
6.62500E+06 4.18588
6.65625E+06 4.19302
6.68750E+06 4.20015
6.71875E+06 4.20725
6.75000E+06 4.21433
6.78125E+06 4.22140
6.81250E+06 4.22844
6.84375E+06 4.23546
6.87500E+06 4.24246
6.90625E+06 4.24944
6.93750E+06 4.25640
6.96875E+06 4.26335
7.00000E+06 4.27027
7.02472E+06 4.27397
7.04944E+06 4.27767
7.07416E+06 4.28135
7.09888E+06 4.28503
7.12060E+06 4.28826
7.14232E+06 4.29146
7.16404E+06 4.29468
7.18576E+06 4.29788
7.20748E+06 4.30107
7.22920E+06 4.30425
7.25092E+06 4.30743
7.27265E+06 4.31061
7.29437E+06 4.31376
7.31609E+06 4.31693
7.33781E+06 4.32007
7.35953E+06 4.32322
7.38125E+06 4.32636
7.40297E+06 4.32948
7.42469E+06 4.33261
7.44642E+06 4.33572
7.46814E+06 4.33884
7.48331E+06 4.34101
7.48986E+06 4.34194
7.51158E+06 4.34503
7.53330E+06 4.34812
7.55502E+06 4.35120
7.57674E+06 4.35427
7.59846E+06 4.35734
7.62019E+06 4.36040
7.64191E+06 4.36346
7.66363E+06 4.36651
7.68535E+06 4.36955
7.70708E+06 4.37259
7.72880E+06 4.37562
7.75052E+06 4.37864
7.77224E+06 4.38165
7.79397E+06 4.38467
7.81972E+06 4.38823
7.84547E+06 4.39178
7.87122E+06 4.39533
7.89698E+06 4.39885
7.92273E+06 4.40239
7.94849E+06 4.40590
7.97424E+06 4.40941
8.00000E+06 4.41291
8.03306E+06 4.41506
8.05881E+06 4.41605
8.08456E+06 4.41708
8.11031E+06 4.41815
8.13607E+06 4.41926
8.16182E+06 4.42040
8.18757E+06 4.42158
8.21332E+06 4.42279
8.23907E+06 4.42404
8.26985E+06 4.42555
8.30062E+06 4.42711
8.33140E+06 4.42872
8.36218E+06 4.43038
8.39295E+06 4.43209
8.42373E+06 4.43385
8.45450E+06 4.43566
8.48528E+06 4.43752
8.51698E+06 4.43945
8.54867E+06 4.44142
8.58037E+06 4.44345
8.61207E+06 4.44553
8.64376E+06 4.44765
8.67546E+06 4.44983
8.70715E+06 4.45205
8.73885E+06 4.45433
8.77149E+06 4.45668
8.80414E+06 4.45909
8.83678E+06 4.46154
8.86943E+06 4.46405
8.90207E+06 4.46661
8.93471E+06 4.46921
8.96736E+06 4.47187
9.00000E+06 4.47457
9.03043E+06 4.47420
9.06085E+06 4.47386
9.09128E+06 4.47357
9.12171E+06 4.47332
9.15214E+06 4.47311
9.18256E+06 4.47293
9.21299E+06 4.47280
9.24342E+06 4.47270
9.27384E+06 4.47264
9.30427E+06 4.47262
9.33470E+06 4.47264
9.36512E+06 4.47270
9.39555E+06 4.47279
9.42598E+06 4.47292
9.45640E+06 4.47309
9.48683E+06 4.47330
9.51890E+06 4.47352
9.55098E+06 4.47379
9.58305E+06 4.47409
9.61512E+06 4.47443
9.64720E+06 4.47482
9.67927E+06 4.47524
9.71134E+06 4.47570
9.74342E+06 4.47621
9.77549E+06 4.47675
9.80756E+06 4.47733
9.83964E+06 4.47795
9.87171E+06 4.47860
9.90378E+06 4.47930
9.93585E+06 4.48003
9.96793E+06 4.48080
1.00000E+07 4.48161
1.01220E+07 4.47651
1.02441E+07 4.47181
1.03661E+07 4.46751
1.04881E+07 4.46360
1.06161E+07 4.45973
1.07441E+07 4.45628
1.08720E+07 4.45324
1.10000E+07 4.45060
1.11540E+07 4.44565
1.13079E+07 4.44106
1.14619E+07 4.43683
1.16158E+07 4.43297
1.18079E+07 4.42750
1.20000E+07 4.42248
1.21250E+07 4.41601
1.22500E+07 4.40979
1.23750E+07 4.40383
1.25000E+07 4.39813
1.26250E+07 4.39268
1.27500E+07 4.38749
1.28750E+07 4.38255
1.30000E+07 4.37788
1.31764E+07 4.37024
1.33527E+07 4.36306
1.34381E+07 4.35954
1.35380E+07 4.35545
1.37690E+07 4.34583
1.40000E+07 4.33698
1.42500E+07 4.31599
1.45000E+07 4.29612
1.45147E+07 4.29492
1.45294E+07 4.29372
1.45441E+07 4.29252
1.45588E+07 4.29133
1.45736E+07 4.29014
1.45883E+07 4.28896
1.46030E+07 4.28777
1.46177E+07 4.28659
1.46324E+07 4.28542
1.46471E+07 4.28424
1.46618E+07 4.28307
1.46765E+07 4.28191
1.46912E+07 4.28074
1.47059E+07 4.27958
1.47207E+07 4.27843
1.47354E+07 4.27727
1.47501E+07 4.27612
1.47648E+07 4.27497
1.47795E+07 4.27383
1.47942E+07 4.27269
1.48089E+07 4.27155
1.48236E+07 4.27042
1.48383E+07 4.26928
1.48530E+07 4.26816
1.48677E+07 4.26703
1.48825E+07 4.26591
1.48972E+07 4.26479
1.49119E+07 4.26368
1.49266E+07 4.26257
1.49413E+07 4.26146
1.49560E+07 4.26035
1.49707E+07 4.25925
1.49854E+07 4.25813
1.50000E+07 4.25701
1.50313E+07 4.25267
1.50625E+07 4.24834
1.50938E+07 4.24404
1.51250E+07 4.23976
1.51563E+07 4.23549
1.51875E+07 4.23124
1.52188E+07 4.22702
1.52500E+07 4.22281
1.52813E+07 4.21862
1.53125E+07 4.21445
1.53438E+07 4.21030
1.53750E+07 4.20617
1.54063E+07 4.20206
1.54375E+07 4.19797
1.54688E+07 4.19389
1.55000E+07 4.18984
1.55313E+07 4.18581
1.55625E+07 4.18179
1.55938E+07 4.17780
1.56250E+07 4.17382
1.56563E+07 4.16986
1.56875E+07 4.16593
1.57188E+07 4.16201
1.57500E+07 4.15811
1.57813E+07 4.15424
1.58125E+07 4.15038
1.58438E+07 4.14654
1.58750E+07 4.14272
1.59063E+07 4.13893
1.59375E+07 4.13515
1.59688E+07 4.13139
1.60000E+07 4.12765
1.60625E+07 4.11529
1.61250E+07 4.10302
1.61875E+07 4.09085
1.62500E+07 4.07877
1.63125E+07 4.06678
1.63750E+07 4.05488
1.64375E+07 4.04307
1.65000E+07 4.03136
1.65625E+07 4.01974
1.66250E+07 4.00821
1.66875E+07 3.99678
1.67500E+07 3.98543
1.68125E+07 3.97417
1.68750E+07 3.96301
1.69375E+07 3.95194
1.70000E+07 3.94096
1.71250E+07 3.91891
1.72500E+07 3.89715
1.73750E+07 3.87568
1.75000E+07 3.85450
1.76250E+07 3.83360
1.77500E+07 3.81299
1.78750E+07 3.79268
1.80000E+07 3.77268
1.82500E+07 3.72618
1.85000E+07 3.68109
1.87500E+07 3.63741
1.90000E+07 3.59519
1.95000E+07 3.51231
2.00000E+07 3.43453