Pd-110(n,g) ENDF/B-VII.1
Energy(eV) XS(b)
1.00000E-05 11.5270
1.25000E-05 10.3100
1.50000E-05 9.41174
2.00000E-05 8.15080
2.75000E-05 6.95103
3.50000E-05 6.16143
4.25000E-05 5.59140
5.00000E-05 5.15502
6.25000E-05 4.61079
7.50000E-05 4.20905
0.000100000 3.64514
0.000125000 3.26031
0.000150000 2.97624
0.000200000 2.57750
0.000275000 2.19809
0.000350000 1.94840
0.000425000 1.76814
0.000500000 1.63014
0.000625000 1.45803
0.000750000 1.33099
0.00100000 1.15267
0.00125000 1.03097
0.00150000 0.941133
0.00200000 0.815033
0.00275000 0.695047
0.00350000 0.616080
0.00425000 0.559071
0.00500000 0.515427
0.00625000 0.460995
0.00750000 0.420814
0.0100000 0.364409
0.0125000 0.325913
0.0150000 0.297495
0.0200000 0.257601
0.0253000 0.228999
0.0314750 0.205274
0.0376500 0.187653
0.0500000 0.162778
0.0625000 0.145540
0.0750000 0.132811
0.100000 0.114934
0.125000 0.102725
0.150000 0.0937060
0.200000 0.0810336
0.275000 0.0689549
0.350000 0.0609888
0.500000 0.0508051
0.750000 0.0411832
1.00000 0.0354096
1.50000 0.0285008
2.00000 0.0243343
2.75000 0.0203193
3.50000 0.0176398
5.00000 0.0141669
7.50000 0.0108279
10.0000 0.00880028
15.0000 0.00637398
20.0000 0.00494069
27.5000 0.00362486
35.0000 0.00281840
42.5000 0.00230166
46.2500 0.00214345
48.1250 0.00213121
50.0000 0.00243403
50.4675 0.00280081
50.9350 0.00385604
51.1688 0.00530313
51.4025 0.00925496
51.5194 0.0144542
51.6363 0.0279166
51.6947 0.0445181
51.7239 0.0594271
51.7531 0.0836190
51.7824 0.126514
51.8116 0.212645
51.8262 0.291374
51.8408 0.419141
51.8554 0.638274
51.8700 1.02349
51.8850 1.63668
51.9000 2.04566
51.9150 1.63715
51.9300 1.02408
51.9393 0.754644
51.9486 0.566045
51.9672 0.341818
51.9858 0.224749
52.0044 0.157974
52.0230 0.116796
52.0416 0.0898211
52.0788 0.0579537
52.1531 0.0302411
52.2275 0.0189203
52.3763 0.00996961
52.5250 0.00657657
52.8225 0.00401968
53.1200 0.00308232
54.3100 0.00212479
56.6900 0.00183273
61.4500 0.00172476
66.2100 0.00180782
68.5900 0.00208144
69.7800 0.00287641
70.0775 0.00362719
70.3750 0.00565592
70.5238 0.00833966
70.6725 0.0154142
70.7469 0.0243646
70.8213 0.0462759
70.8584 0.0714915
70.8956 0.125426
70.9142 0.178320
70.9328 0.270971
70.9514 0.448540
70.9607 0.597918
70.9700 0.811070
70.9850 1.29662
71.0000 1.62041
71.0150 1.29689
71.0300 0.811417
71.0449 0.501397
71.0598 0.327325
71.0747 0.226717
71.0897 0.165110
71.1195 0.0980884
71.1493 0.0649013
71.2090 0.0347659
71.2686 0.0220133
71.3879 0.0116958
71.5072 0.00772177
71.7458 0.00471390
71.9844 0.00362604
72.9387 0.00263893
74.8475 0.00273771
76.7562 0.00336019
78.6650 0.00462512
79.6193 0.00572674
80.5737 0.00743897
81.5281 0.0102931
82.4824 0.0155571
82.9596 0.0200305
83.4368 0.0269095
83.9140 0.0382775
84.3912 0.0590735
84.6298 0.0766363
84.8684 0.103501
85.1070 0.147603
85.3455 0.227559
85.4648 0.294498
85.5841 0.396025
85.7034 0.560819
85.8227 0.854673
85.8824 1.09666
85.9420 1.45783
86.0017 2.03118
86.0613 3.02114
86.1210 4.95239
86.1508 6.69007
86.1806 9.51401
86.2104 14.5372
86.2254 18.6366
86.2403 24.6667
86.2552 33.9716
86.2701 49.1514
86.2850 75.3762
86.2999 121.945
86.3150 195.063
86.3300 243.794
86.3451 195.096
86.3601 121.987
86.3734 79.1872
86.3868 53.5914
86.4001 38.0314
86.4134 28.1444
86.4400 17.0037
86.4667 11.3001
86.4933 8.02696
86.5200 5.98582
86.5732 3.68737
86.6265 2.49463
86.6798 1.79851
86.7331 1.35756
86.7864 1.06089
86.8929 0.698992
86.9995 0.495161
87.1060 0.369154
87.2126 0.285867
87.4257 0.186084
87.6389 0.130866
87.8520 0.0971385
88.0651 0.0750368
88.4913 0.0487841
88.9176 0.0343749
89.3438 0.0256204
89.7701 0.0199044
90.6226 0.0131360
91.4751 0.00942931
92.3276 0.00717824
93.1801 0.00570720
94.8850 0.00396027
96.5900 0.00299716
100.000 0.00201641
104.246 0.00146410
108.493 0.00118079
116.985 0.000901991
125.478 0.000785268
129.724 0.000825657
131.847 0.00114082
132.909 0.00242420
133.439 0.00726179
133.572 0.0119541
133.705 0.0242432
133.771 0.0396394
133.837 0.0766449
133.871 0.118396
133.904 0.204858
133.920 0.287130
133.937 0.426251
133.954 0.679126
133.970 1.15493
133.985 1.84752
134.000 2.30930
134.015 1.84772
134.030 1.15519
134.041 0.811020
134.052 0.585757
134.073 0.335150
134.094 0.212956
134.116 0.146194
134.159 0.0805814
134.201 0.0508841
134.287 0.0256782
134.373 0.0155786
134.544 0.00769729
134.715 0.00474481
135.400 0.00173751
136.770 0.000938263
139.510 0.000722008
144.990 0.000655789
155.950 0.000674271
161.430 0.000758791
166.910 0.00102722
169.650 0.00140971
172.390 0.00250296
173.760 0.00402804
175.130 0.00835467
175.815 0.0143527
176.158 0.0203298
176.500 0.0312163
176.843 0.0543299
177.014 0.0771403
177.185 0.118192
177.271 0.152373
177.356 0.203832
177.442 0.286610
177.528 0.432338
177.570 0.550796
177.613 0.725375
177.656 0.997805
177.699 1.45685
177.742 2.31866
177.763 3.06305
177.784 4.22233
177.806 6.15858
177.827 9.70020
177.838 12.6359
177.849 16.9540
177.859 23.4628
177.870 33.2756
177.885 53.2776
177.900 66.4816
177.915 53.1409
177.930 33.2812
177.941 23.3939
177.952 16.8611
177.963 12.5421
177.973 9.61382
177.995 6.09130
178.016 4.17761
178.038 3.02738
178.060 2.29273
178.103 1.44025
178.146 0.986407
178.189 0.717130
178.232 0.544596
178.275 0.427534
178.361 0.283525
178.447 0.201720
178.534 0.150859
178.620 0.117103
178.792 0.0764804
178.965 0.0539277
179.310 0.0310507
179.654 0.0202632
179.999 0.0143374
180.689 0.00838344
182.068 0.00408159
183.448 0.00256369
186.206 0.00147875
188.965 0.00110605
194.483 0.000864846
200.000 0.000818629
207.909 0.000872108
215.817 0.00102828
223.725 0.00132673
231.634 0.00190423
235.588 0.00240318
239.542 0.00317646
243.496 0.00446317
247.451 0.00683513
249.428 0.00885213
251.405 0.0119581
253.382 0.0171036
255.359 0.0265583
256.348 0.0345825
257.336 0.0469194
258.325 0.0673240
259.313 0.104727
259.807 0.136403
260.302 0.185005
260.796 0.265153
261.290 0.411434
261.537 0.534828
261.785 0.723296
262.032 1.03244
262.279 1.59186
262.402 2.05979
262.526 2.76888
262.650 3.91838
262.773 5.96282
262.835 7.64466
262.897 10.1511
262.959 14.1225
263.020 20.9479
263.082 34.2210
263.113 46.1085
263.144 65.3449
263.175 99.3231
263.190 126.986
263.206 167.163
263.221 229.071
263.237 328.351
263.244 401.190
263.252 497.263
263.260 624.697
263.267 792.466
263.269 825.282
263.273 934.517
263.277 1052.06
263.284 1304.96
263.300 1618.82
263.316 1304.95
263.331 825.273
263.333 789.988
263.337 697.609
263.341 617.152
263.349 488.761
263.365 320.247
263.380 221.763
263.396 161.584
263.412 122.218
263.428 95.5618
263.460 62.7726
263.491 44.2056
263.523 32.7630
263.586 20.0330
263.650 13.4810
263.713 9.68736
263.776 7.29096
263.840 5.68641
263.966 3.73402
264.093 2.63800
264.220 1.96211
264.346 1.51619
264.600 0.983035
264.853 0.688628
265.107 0.509106
265.360 0.391634
265.867 0.252342
266.374 0.176055
266.880 0.129797
267.387 0.0996565
268.401 0.0640564
269.414 0.0446385
270.428 0.0328972
271.441 0.0252614
273.469 0.0162617
275.496 0.0113625
277.523 0.00840355
279.550 0.00648074
283.604 0.00421603
287.659 0.00298345
291.713 0.00223885
295.767 0.00175464
303.876 0.00118348
311.984 0.000871747
328.201 0.000559687
344.419 0.000414379
360.636 0.000336829
376.853 0.000300257
384.962 0.000326296
389.016 0.000487116
391.043 0.00114322
392.057 0.00369064
392.563 0.0132079
392.817 0.0463750
392.880 0.0762500
392.943 0.147496
392.975 0.227131
393.007 0.390004
393.038 0.797648
393.054 1.24898
393.070 2.07961
393.085 3.32667
393.100 4.15784
393.115 3.32680
393.130 2.07977
393.145 1.28408
393.160 0.838939
393.189 0.422177
393.219 0.248884
393.249 0.163201
393.308 0.0851370
393.367 0.0521023
393.604 0.0149488
394.078 0.00417107
395.026 0.00126717
396.923 0.000511359
400.715 0.000315792
408.300 0.000265637
415.885 0.000284337
419.678 0.000414241
421.574 0.000940393
422.522 0.00297588
422.996 0.0105431
423.233 0.0366523
423.352 0.114794
423.411 0.297125
423.440 0.590804
423.455 0.904624
423.470 1.46061
423.485 2.33623
423.500 2.91974
423.515 2.33631
423.530 1.46072
423.549 0.803939
423.567 0.483407
423.605 0.221958
423.679 0.0797403
423.829 0.0243671
424.128 0.00690027
424.725 0.00198527
425.920 0.000680515
428.309 0.000343065
433.089 0.000255539
442.648 0.000232013
461.765 0.000231379
500.000 0.000304542
526.834 0.000664759
533.542 0.00103267
540.251 0.00207355
543.605 0.00352142
546.959 0.00763507
548.636 0.0133635
549.475 0.0191003
550.314 0.0296095
551.152 0.0521440
551.571 0.0746184
551.991 0.115584
552.200 0.150099
552.410 0.202742
552.620 0.288942
552.829 0.444497
552.934 0.574335
553.039 0.770367
553.144 1.08688
553.249 1.64713
553.301 2.10506
553.353 2.78360
553.406 3.85027
553.458 5.66667
553.511 9.13309
553.537 12.1795
553.563 17.0107
553.589 25.2936
553.615 41.0629
553.628 54.6841
553.642 75.5416
553.655 108.631
553.668 161.550
553.684 258.581
553.700 322.647
553.716 257.948
553.732 161.058
553.745 110.889
553.757 78.8049
553.769 57.8578
553.781 44.0028
553.806 27.5350
553.830 18.7312
553.855 13.5001
553.879 10.1824
553.928 6.36179
553.977 4.34174
554.026 3.14854
554.075 2.38642
554.124 1.87051
554.222 1.23737
554.319 0.878558
554.417 0.655846
554.515 0.508215
554.711 0.330855
554.906 0.232446
555.102 0.172241
555.297 0.132750
555.689 0.0858099
556.080 0.0600387
556.862 0.0341738
557.645 0.0221016
558.427 0.0155124
559.992 0.00894197
563.121 0.00427702
566.251 0.00274651
572.510 0.00268175
574.075 0.00370503
575.640 0.00689689
576.422 0.0114322
577.205 0.0242916
577.596 0.0419927
577.987 0.0911098
578.183 0.157279
578.281 0.221553
578.378 0.335290
578.476 0.565882
578.525 0.782189
578.574 1.15030
578.623 1.85209
578.647 2.46976
578.672 3.44419
578.696 5.11930
578.721 8.28733
578.733 11.0411
578.745 15.2164
578.757 21.8129
578.770 32.3114
578.785 51.6635
578.800 64.5508
578.815 51.6647
578.830 32.3130
578.845 20.5725
578.859 13.7140
578.873 9.62690
578.887 7.08271
578.915 4.23308
578.943 2.79823
578.971 1.97849
578.999 1.47196
579.056 0.903329
579.112 0.609718
579.168 0.438912
579.281 0.258457
579.393 0.170176
579.506 0.120538
579.731 0.0696719
580.181 0.0320621
580.632 0.0185361
581.532 0.00869015
582.433 0.00518129
584.234 0.00262592
586.035 0.00170346
593.240 0.000746554
607.650 0.000467558
622.060 0.000553297
629.265 0.00117106
632.867 0.00367651
633.768 0.00625432
634.669 0.0135289
635.119 0.0235479
635.569 0.0514448
635.794 0.0892321
635.907 0.126118
636.020 0.191679
636.132 0.325864
636.188 0.452959
636.245 0.671582
636.301 1.09543
636.329 1.47508
636.357 2.08582
636.386 3.16471
636.414 5.29768
636.428 7.22898
636.442 10.2960
636.456 15.4910
636.470 24.3436
636.485 38.9676
636.500 48.7247
636.515 38.9685
636.530 24.3447
636.542 16.4351
636.554 11.4986
636.566 8.34188
636.578 6.28811
636.603 3.88712
636.627 2.62412
636.651 1.88141
636.675 1.41381
636.723 0.879017
636.771 0.597664
636.819 0.432599
636.915 0.256441
637.012 0.169395
637.108 0.120233
637.300 0.0695786
637.685 0.0319276
638.070 0.0183390
638.840 0.00843787
639.610 0.00491867
642.689 0.00148240
648.848 0.000612829
661.165 0.000401749
685.800 0.000391909
698.118 0.000431361
710.435 0.000521501
722.752 0.000895669
728.911 0.00225876
730.451 0.00364765
731.990 0.00757657
732.760 0.0130204
733.530 0.0283360
733.915 0.0493624
734.300 0.107636
734.492 0.186108
734.589 0.262258
734.685 0.396916
734.781 0.670058
734.829 0.925864
734.877 1.36075
734.925 2.18856
734.950 2.91596
734.974 4.06145
734.998 6.02581
735.022 9.72624
735.034 12.9303
735.046 17.7686
735.058 25.3735
735.070 37.4056
735.085 59.9077
735.100 74.7697
735.115 59.7511
735.130 37.4070
735.145 23.1307
735.160 15.0877
735.175 10.4306
735.190 7.57520
735.205 5.72436
735.220 4.46592
735.250 2.92776
735.280 2.05886
735.310 1.52440
735.370 0.930951
735.430 0.626046
735.490 0.449732
735.610 0.264085
735.730 0.173489
735.850 0.122702
736.089 0.0707165
736.569 0.0323877
737.048 0.0186381
738.007 0.00866107
738.966 0.00512850
742.801 0.00170302
750.472 0.000878267
758.143 0.000771018
765.814 0.000780454
781.155 0.000921345
796.497 0.00119902
811.838 0.00172153
819.509 0.00217837
827.180 0.00292586
834.851 0.00434839
838.686 0.00565890
842.521 0.00793456
846.357 0.0126048
848.274 0.0171635
850.192 0.0254080
852.110 0.0429494
853.069 0.0604191
854.028 0.0923317
854.507 0.119304
854.986 0.160622
855.466 0.228652
855.945 0.352623
856.185 0.456986
856.425 0.616205
856.664 0.876721
856.904 1.34694
857.024 1.73911
857.144 2.33109
857.264 3.28754
857.383 4.97862
857.443 6.36294
857.503 8.41055
857.563 11.6278
857.623 17.1026
857.683 27.5642
857.713 36.7584
857.743 51.2771
857.773 76.2235
857.803 123.463
857.818 164.315
857.833 226.796
857.848 325.758
857.863 482.400
857.881 771.934
857.900 964.993
857.919 771.935
857.937 482.408
857.958 283.266
857.978 178.399
857.999 120.211
858.019 85.8845
858.040 64.0512
858.060 49.5373
858.101 32.0468
858.142 22.3467
858.182 16.4597
858.264 9.97156
858.346 6.67328
858.428 4.77743
858.509 3.58782
858.591 2.79297
858.755 1.82992
858.918 1.29172
859.081 0.960501
859.245 0.742540
859.572 0.482373
859.899 0.339009
860.226 0.251728
860.552 0.194691
861.206 0.127183
861.860 0.0903153
862.514 0.0680416
863.168 0.0535973
864.475 0.0367170
865.783 0.0277271
868.398 0.0193404
871.013 0.0162661
873.628 0.0155791
878.859 0.0186532
881.474 0.0226142
884.089 0.0292121
886.704 0.0405102
889.320 0.0615210
890.627 0.0793789
891.935 0.106788
893.242 0.151932
894.550 0.234115
895.204 0.303192
895.858 0.408394
896.511 0.580099
897.165 0.888876
897.492 1.14532
897.656 1.31743
897.819 1.53134
897.982 1.80212
898.146 2.15137
898.228 2.36562
898.309 2.61319
898.473 3.24070
898.636 4.12472
898.800 5.42428
898.963 7.44834
899.045 8.91005
899.127 10.8444
899.208 13.4809
899.290 17.1895
899.372 22.6355
899.453 31.0657
899.535 45.0254
899.617 70.2326
899.658 90.8879
899.699 120.826
899.739 165.383
899.780 231.266
899.840 369.915
899.900 462.281
899.960 369.612
900.020 231.017
900.073 150.364
900.125 101.946
900.178 72.4407
900.231 53.6580
900.336 32.4555
900.441 21.5901
900.547 15.3410
900.652 11.4417
900.863 7.04999
901.074 4.76868
901.284 3.43755
901.495 2.59418
901.706 2.02668
902.127 1.33434
902.549 0.944433
902.970 0.703464
903.392 0.544272
904.235 0.353601
905.078 0.248172
905.921 0.183818
906.764 0.141689
908.449 0.0917087
910.135 0.0643333
911.821 0.0477427
913.507 0.0369446
916.879 0.0242384
920.251 0.0173808
923.622 0.0133282
926.994 0.0108166
933.738 0.00840318
940.481 0.00870609
943.853 0.0106252
947.225 0.0162576
948.911 0.0233903
950.597 0.0412207
951.440 0.0635321
951.861 0.0846042
952.283 0.121625
952.704 0.197861
952.915 0.271814
953.125 0.403911
953.231 0.513455
953.336 0.678479
953.442 0.944360
953.547 1.41389
953.600 1.79789
953.652 2.36713
953.705 3.26288
953.758 4.78712
953.810 7.70843
953.837 10.2901
953.863 14.3827
953.889 21.4633
953.916 34.9987
953.929 46.8303
953.942 64.9412
953.955 94.1795
953.968 141.120
953.984 226.056
954.000 282.208
954.016 225.489
954.032 141.126
954.047 88.0124
954.063 57.7821
954.078 40.1352
954.093 29.3078
954.109 22.2043
954.124 17.3606
954.155 11.4227
954.186 8.05951
954.216 5.99254
954.278 3.68795
954.339 2.50214
954.401 1.81538
954.462 1.38311
954.524 1.09439
954.647 0.744762
954.769 0.551141
955.015 0.359710
955.261 0.278291
955.507 0.244916
955.999 0.255470
956.245 0.295077
956.491 0.367463
956.736 0.495555
956.982 0.735333
957.105 0.938322
957.228 1.24692
957.351 1.74798
957.474 2.63974
957.535 3.37257
957.597 4.46307
957.658 6.18687
957.720 9.13868
957.781 14.8447
957.812 19.9112
957.843 28.0439
957.874 42.2983
957.904 70.1509
957.920 95.0410
957.935 134.073
957.950 198.978
957.966 307.238
957.983 491.816
958.000 614.971
958.017 491.819
958.034 307.244
958.055 173.190
958.075 105.827
958.096 70.0260
958.116 49.3429
958.137 36.4878
958.157 28.0115
958.198 17.9400
958.239 12.4407
958.280 9.12346
958.362 5.50460
958.444 3.67687
958.526 2.62950
958.608 1.97434
958.690 1.53798
958.854 1.00979
959.018 0.714979
959.182 0.533680
959.346 0.414242
959.674 0.271475
960.002 0.192572
960.330 0.144315
960.657 0.112632
961.313 0.0748191
961.969 0.0539025
963.280 0.0326517
964.592 0.0225588
965.903 0.0169722
968.526 0.0113503
973.772 0.00756538
979.017 0.00700136
984.263 0.00830453
989.509 0.0126731
992.132 0.0176190
994.754 0.0273960
996.066 0.0362126
997.377 0.0505534
998.689 0.0761508
999.344 0.0972311
1000.00 0.128693
1000.53 0.167197
1001.06 0.226232
1001.60 0.323466
1002.13 0.500635
1002.39 0.649726
1002.66 0.877063
1002.93 1.24874
1003.19 1.91874
1003.33 2.47652
1003.46 3.31807
1003.59 4.67404
1003.72 7.06703
1003.79 9.03461
1003.86 11.8978
1003.92 16.4509
1003.99 24.0426
1004.06 38.6312
1004.09 51.1548
1004.12 70.7484
1004.16 103.691
1004.19 164.560
1004.21 217.414
1004.22 291.296
1004.24 411.307
1004.26 583.992
1004.28 944.154
1004.30 1170.96
1004.32 927.439
1004.35 583.992
1004.37 370.318
1004.39 246.170
1004.41 172.477
1004.43 128.232
1004.47 76.3186
1004.51 50.7017
1004.55 35.7374
1004.59 26.6769
1004.68 16.3709
1004.76 11.0477
1004.84 7.95027
1004.93 5.99243
1005.01 4.67726
1005.18 3.07580
1005.34 2.17527
1005.51 1.61929
1005.67 1.25217
1006.01 0.812846
1006.34 0.570033
1006.67 0.421876
1007.00 0.325118
1007.66 0.209923
1008.33 0.146801
1008.99 0.108509
1009.66 0.0835737
1010.98 0.0540553
1012.31 0.0379463
1014.97 0.0218286
1017.62 0.0143145
1020.28 0.0102042
1025.59 0.00607446
1030.90 0.00413013
1036.21 0.00305358
1046.83 0.00195204
1057.45 0.00142133
1068.07 0.00112460
1089.30 0.000835826
1110.54 0.000758546
1131.78 0.000917425
1142.40 0.00124086
1153.02 0.00223225
1158.33 0.00364444
1163.64 0.00769343
1166.30 0.0133557
1167.63 0.0190403
1168.95 0.0294660
1170.28 0.0518939
1170.95 0.0743268
1171.61 0.115278
1171.94 0.149907
1172.27 0.202912
1172.61 0.290024
1172.94 0.447609
1173.10 0.580057
1173.27 0.781350
1173.43 1.10896
1173.60 1.69564
1173.68 2.18083
1173.77 2.90809
1173.85 4.06950
1173.93 6.09273
1174.02 10.0940
1174.06 13.8028
1174.10 19.7833
1174.14 30.9626
1174.16 40.3878
1174.18 53.8616
1174.20 76.3585
1174.22 112.728
1174.24 182.882
1174.26 319.238
1174.28 510.956
1174.30 637.664
1174.32 510.957
1174.34 318.361
1174.35 197.311
1174.37 128.365
1174.39 88.5734
1174.41 64.2362
1174.43 48.4903
1174.44 37.7994
1174.48 24.7196
1174.52 17.3725
1174.55 12.8567
1174.62 7.84035
1174.70 5.27020
1174.77 3.78244
1174.84 2.84541
1174.91 2.22486
1175.06 1.45908
1175.20 1.03225
1175.34 0.767120
1175.49 0.593429
1175.77 0.384365
1176.06 0.269423
1176.35 0.199314
1176.63 0.153426
1177.21 0.0989317
1177.78 0.0691426
1178.93 0.0392925
1180.08 0.0253677
1181.23 0.0177772
1183.53 0.0101949
1188.12 0.00475124
1192.71 0.00283740
1201.90 0.00146480
1211.09 0.000984166
1247.85 0.000565298
1266.23 0.000593240
1284.60 0.000805894
1302.98 0.00208195
1307.58 0.00341241
1312.17 0.00720422
1314.47 0.0124956
1316.77 0.0275140
1317.92 0.0483782
1318.49 0.0691866
1319.06 0.107152
1319.64 0.188212
1319.93 0.268392
1320.21 0.413413
1320.36 0.535065
1320.50 0.717941
1320.64 1.01614
1320.79 1.54226
1320.86 1.97685
1320.93 2.62424
1321.00 3.64935
1321.07 5.38059
1321.15 8.76597
1321.18 11.7856
1321.22 16.6499
1321.25 25.1816
1321.29 42.0125
1321.31 57.1008
1321.33 81.0815
1321.34 121.013
1321.36 185.246
1321.38 295.522
1321.40 370.544
1321.42 295.521
1321.44 185.247
1321.45 133.159
1321.47 98.4311
1321.49 58.1561
1321.52 37.1030
1321.55 25.8349
1321.57 18.7388
1321.60 14.3185
1321.65 9.11306
1321.70 6.25315
1321.76 4.57657
1321.81 3.47537
1321.86 2.73966
1321.97 1.82073
1322.07 1.29677
1322.18 0.970183
1322.28 0.753031
1322.49 0.490442
1322.70 0.345167
1323.12 0.197524
1323.54 0.127688
1323.96 0.0893917
1324.80 0.0508533
1325.64 0.0328434
1326.49 0.0230013
1328.17 0.0131667
1331.53 0.00609479
1334.89 0.00360973
1341.62 0.00183264
1348.35 0.00121481
1361.80 0.000789846
1375.25 0.000668904
1388.71 0.000658613
1402.16 0.000761312
1415.62 0.00138908
1422.34 0.00386088
1424.02 0.00640396
1425.71 0.0136085
1426.55 0.0236049
1427.39 0.0517625
1427.81 0.0905377
1428.23 0.197943
1428.44 0.342712
1428.54 0.483428
1428.65 0.732639
1428.75 1.23861
1428.81 1.71977
1428.86 2.52450
1428.91 4.09536
1428.94 5.45559
1428.96 7.60984
1428.99 11.4888
1429.02 18.6973
1429.03 24.9516
1429.04 34.5780
1429.06 49.9713
1429.07 76.5884
1429.08 121.331
1429.10 152.936
1429.12 121.332
1429.13 76.3459
1429.14 54.7210
1429.15 39.6405
1429.16 29.5956
1429.18 22.7476
1429.20 14.4647
1429.22 10.0839
1429.24 7.30333
1429.26 5.58760
1429.30 3.52919
1429.35 2.40616
1429.39 1.75534
1429.48 1.05098
1429.56 0.695658
1429.65 0.495950
1429.82 0.288457
1430.00 0.188062
1430.17 0.132550
1430.51 0.0759835
1431.20 0.0346004
1431.89 0.0198836
1433.27 0.00924259
1434.65 0.00548919
1440.18 0.00185413
1451.22 0.000975202
1462.27 0.000855580
1473.32 0.000859075
1495.41 0.000989971
1517.50 0.00124261
1539.59 0.00167189
1561.68 0.00245978
1572.73 0.00315017
1583.78 0.00435646
1589.30 0.00548068
1594.82 0.00785017
1597.58 0.0106396
1600.34 0.0179112
1601.73 0.0276699
1603.11 0.0548501
1603.80 0.0922940
1604.14 0.129443
1604.49 0.196929
1604.83 0.339757
1605.00 0.480767
1605.18 0.732425
1605.26 0.943706
1605.35 1.25796
1605.44 1.76106
1605.52 2.64071
1605.57 3.37071
1605.61 4.42044
1605.65 6.04657
1605.69 8.75820
1605.74 13.7688
1605.76 18.1463
1605.78 24.5420
1605.80 35.4887
1605.82 53.9205
1605.85 91.4603
1605.86 123.778
1605.87 166.704
1605.88 265.864
1605.90 332.925
1605.92 265.865
1605.93 166.214
1605.95 110.577
1605.96 76.4517
1605.98 55.1145
1605.99 41.2629
1606.02 24.9269
1606.05 16.7703
1606.08 11.8820
1606.10 8.92723
1606.16 5.51388
1606.22 3.73677
1606.28 2.69754
1606.33 2.03841
1606.39 1.60102
1606.50 1.05617
1606.62 0.751422
1606.84 0.436282
1607.07 0.285425
1607.30 0.202383
1607.75 0.118432
1608.21 0.0789543
1608.66 0.0574108
1609.57 0.0359202
1611.39 0.0207462
1613.20 0.0157852
1616.84 0.0131478
1620.47 0.0134251
1627.74 0.0173670
1635.01 0.0260112
1638.65 0.0334861
1642.28 0.0449659
1645.92 0.0638152
1649.55 0.0979200
1651.37 0.126411
1653.19 0.169503
1655.01 0.239268
1655.91 0.291587
1656.37 0.324402
1656.82 0.363094
1657.28 0.409263
1657.73 0.464703
1658.19 0.532386
1658.64 0.615796
1659.10 0.720695
1659.55 0.854481
1660.00 1.02918
1660.46 1.26324
1660.91 1.58760
1661.37 2.05262
1661.82 2.75365
1662.27 3.87875
1662.73 5.84764
1662.96 7.42223
1663.18 9.69621
1663.41 13.1202
1663.64 18.5225
1663.86 27.4393
1664.09 42.3963
1664.35 67.8637
1664.60 84.7333
1664.86 67.7312
1665.11 42.3711
1665.33 27.6223
1665.55 18.7805
1665.78 13.3534
1666.00 9.90783
1666.44 6.00047
1666.89 3.99667
1667.33 2.84117
1667.78 2.12104
1668.67 1.30780
1669.56 0.884903
1670.45 0.638283
1671.33 0.482020
1672.22 0.376889
1674.00 0.248690
1675.78 0.176693
1677.56 0.132388
1679.34 0.103424
1682.89 0.0701327
1686.45 0.0564792
1688.23 0.0580646
1689.12 0.0635086
1690.01 0.0760890
1690.90 0.106159
1691.34 0.137379
1691.79 0.195048
1692.23 0.319080
1692.45 0.441825
1692.68 0.663443
1692.79 0.850092
1692.90 1.12987
1693.01 1.58109
1693.12 2.37833
1693.18 3.03573
1693.23 3.99052
1693.29 5.51579
1693.34 8.05671
1693.40 12.9720
1693.43 17.2909
1693.45 23.8280
1693.48 35.3079
1693.51 57.0031
1693.52 75.5888
1693.54 103.797
1693.55 147.983
1693.56 212.598
1693.58 339.394
1693.60 425.197
1693.62 339.395
1693.64 212.601
1693.65 156.124
1693.66 114.433
1693.68 68.0873
1693.71 43.5545
1693.73 30.4274
1693.75 22.0941
1693.78 16.9173
1693.82 10.8015
1693.87 7.42477
1693.92 5.41323
1694.01 3.25806
1694.10 2.16811
1694.20 1.55362
1694.29 1.16972
1694.38 0.914005
1694.57 0.604027
1694.76 0.432256
1695.13 0.256837
1695.50 0.173575
1695.88 0.127707
1696.62 0.0811050
1698.11 0.0462758
1699.61 0.0330094
1701.10 0.0261593
1702.59 0.0219417
1705.58 0.0168723
1711.55 0.0116641
1717.52 0.00881620
1729.46 0.00568882
1741.40 0.00403109
1753.35 0.00304644
1765.29 0.00245595
1777.23 0.00235725
1783.20 0.00357263
1786.18 0.00897496
1787.68 0.0303456
1788.05 0.0519871
1788.42 0.111877
1788.61 0.192648
1788.80 0.407836
1788.89 0.688808
1788.98 1.39003
1789.03 2.23623
1789.05 2.95862
1789.08 4.08791
1789.10 6.09498
1789.12 9.70346
1789.14 12.9008
1789.15 17.2735
1789.16 24.6170
1789.17 35.3276
1789.19 56.9809
1789.20 70.5398
1789.22 56.9814
1789.23 35.2134
1789.25 21.1451
1789.26 13.5732
1789.28 9.28265
1789.30 6.69119
1789.33 3.90796
1789.36 2.54481
1789.39 1.78376
1789.42 1.31785
1789.49 0.802188
1789.62 0.386771
1789.74 0.227089
1790.00 0.105908
1790.26 0.0614496
1790.77 0.0287117
1791.28 0.0169740
1793.33 0.00541727
1797.42 0.00241287
1805.62 0.00155739
1813.81 0.00134697
1822.00 0.00128514
1830.19 0.00136653
1838.38 0.00182280
1846.58 0.00466873
1848.62 0.00766424
1850.67 0.0162016
1851.70 0.0280744
1852.72 0.0615947
1853.23 0.107787
1853.49 0.153583
1853.74 0.236524
1854.00 0.411061
1854.13 0.581598
1854.26 0.885400
1854.38 1.50800
1854.45 2.09894
1854.51 3.11787
1854.58 5.10063
1854.61 6.87981
1854.64 9.76446
1854.67 14.8736
1854.69 19.0278
1854.70 25.1148
1854.72 34.4587
1854.74 49.5925
1854.75 75.4749
1854.77 120.473
1854.78 190.743
1854.80 241.136
1854.82 190.744
1854.83 120.475
1854.85 71.3912
1854.87 45.0539
1854.89 30.4505
1854.90 22.1491
1854.92 16.5101
1854.94 12.7478
1854.98 8.31720
1855.01 5.78374
1855.05 4.28241
1855.12 2.59761
1855.19 1.74042
1855.26 1.24642
1855.40 0.728906
1855.54 0.477679
1855.69 0.337107
1855.97 0.193971
1856.54 0.0883440
1857.10 0.0505016
1858.24 0.0230584
1859.37 0.0133354
1861.64 0.00632870
1863.91 0.00385332
1872.98 0.00142089
1882.05 0.000938480
1891.13 0.000751029
1909.27 0.000594041
1927.42 0.000533399
1945.56 0.000526148
1963.71 0.000596147
1981.86 0.000952439
1990.93 0.00175762
1995.46 0.00308015
2000.00 0.00812110
2001.59 0.0140208
2003.18 0.0307015
2003.98 0.0538118
2004.77 0.118577
2005.17 0.207283
2005.37 0.294704
2005.57 0.450879
2005.77 0.776844
2005.87 1.09326
2005.97 1.64312
2006.02 2.09314
2006.07 2.75597
2006.12 3.78938
2006.16 5.48246
2006.21 8.69272
2006.24 11.4491
2006.26 15.5016
2006.29 22.4040
2006.31 34.7811
2006.34 59.3179
2006.35 79.5717
2006.36 109.033
2006.38 174.275
2006.40 218.079
2006.42 174.275
2006.44 109.034
2006.45 71.9671
2006.47 49.4332
2006.49 34.7823
2006.50 26.0042
2006.54 15.7149
2006.57 10.4423
2006.60 7.41592
2006.64 5.52865
2006.70 3.42625
2006.77 2.31411
2006.83 1.66619
2006.96 0.984355
2007.10 0.647155
2007.23 0.458727
2007.49 0.264390
2007.75 0.171804
2008.02 0.120601
2008.54 0.0688804
2009.59 0.0312857
2010.65 0.0179509
2012.75 0.00835304
2014.85 0.00498514
2023.27 0.00181029
2040.10 0.00154139
2048.51 0.00223746
2056.93 0.00446599
2061.13 0.00764322
2065.34 0.0167283
2067.44 0.0294038
2068.50 0.0420987
2069.55 0.0653205
2070.60 0.115100
2071.13 0.164694
2071.65 0.255013
2071.91 0.330984
2072.18 0.446780
2072.44 0.635994
2072.70 0.976826
2072.84 1.26167
2072.97 1.68784
2073.10 2.37933
2073.23 3.58865
2073.30 4.57997
2073.36 6.04499
2073.43 8.33961
2073.49 12.1485
2073.56 19.4233
2073.59 25.7438
2073.62 35.2689
2073.66 51.6609
2073.69 81.8988
2073.71 108.103
2073.72 144.651
2073.74 199.569
2073.75 286.616
2073.78 455.482
2073.80 572.664
2073.82 455.479
2073.85 285.985
2073.87 183.635
2073.89 124.575
2073.91 88.5871
2073.93 65.6654
2073.97 39.3232
2074.01 26.2232
2074.05 18.5269
2074.09 13.8540
2074.17 8.56582
2074.25 5.78262
2074.33 4.17783
2074.41 3.14779
2074.49 2.46325
2074.65 1.61813
2074.81 1.14573
2074.97 0.853569
2075.14 0.660416
2075.46 0.428469
2075.78 0.300614
2076.42 0.171347
2077.07 0.110528
2077.71 0.0772388
2079.00 0.0438360
2081.58 0.0197513
2084.16 0.0112624
2089.32 0.00516331
2094.47 0.00301595
2115.10 0.000924826
2135.73 0.000529109
2156.36 0.000390414
2197.61 0.000317679
2218.24 0.000394635
2228.56 0.000744160
2233.71 0.00212936
2236.29 0.00758845
2237.58 0.0288138
2237.90 0.0502757
2238.23 0.109231
2238.39 0.187895
2238.55 0.396489
2238.63 0.664199
2238.71 1.31608
2238.75 2.09543
2238.79 3.75091
2238.81 5.39376
2238.83 8.31431
2238.85 14.0393
2238.86 18.9626
2238.87 26.3918
2238.89 42.6112
2238.90 52.7839
2238.92 42.6114
2238.93 26.3921
2238.95 15.3240
2238.97 9.38945
2238.98 6.22003
2239.00 4.38479
2239.04 2.48942
2239.07 1.59388
2239.15 0.809782
2239.22 0.487726
2239.36 0.232358
2239.51 0.135425
2239.79 0.0624716
2240.08 0.0359417
2241.23 0.00944122
2243.53 0.00261324
2248.14 0.000885231
2257.34 0.000470089
2275.75 0.000471786
2294.16 0.00105121
2303.36 0.00341907
2307.96 0.0128138
2309.12 0.0224787
2310.27 0.0497570
2310.84 0.0874753
2311.42 0.192689
2311.70 0.336086
2311.85 0.476742
2311.99 0.726026
2312.14 1.24242
2312.21 1.73561
2312.28 2.59186
2312.35 4.27611
2312.39 5.80487
2312.42 8.31408
2312.46 12.8395
2312.48 16.5873
2312.50 22.1783
2312.51 30.9683
2312.53 45.6777
2312.55 71.9752
2312.57 117.406
2312.58 187.548
2312.60 234.646
2312.62 187.549
2312.63 117.407
2312.65 82.6620
2312.66 58.3019
2312.67 42.6288
2312.68 32.9052
2312.71 20.7224
2312.73 14.1339
2312.76 10.2171
2312.78 7.71453
2312.83 4.83071
2312.88 3.30143
2312.93 2.39640
2313.03 1.42537
2313.14 0.940053
2313.24 0.668154
2313.44 0.387005
2313.64 0.251652
2313.84 0.176943
2314.24 0.101151
2315.04 0.0457503
2315.84 0.0260374
2317.44 0.0118016
2319.04 0.00678236
2325.45 0.00191275
2338.27 0.000698444
2363.91 0.000430928
2389.54 0.000443525
2415.18 0.000549023
2440.82 0.000797699
2466.45 0.00148701
2479.27 0.00242220
2492.09 0.00503899
2498.50 0.00865999
2504.91 0.0189182
2508.11 0.0331773
2509.71 0.0474323
2511.31 0.0735098
2512.92 0.129345
2513.72 0.184879
2514.52 0.285877
2514.92 0.370843
2515.32 0.499852
2515.72 0.710820
2516.12 1.08887
2516.32 1.40423
2516.52 1.87633
2516.72 2.63322
2516.92 3.95933
2517.02 5.04501
2517.12 6.62530
2517.22 9.07771
2517.32 13.1776
2517.42 20.7831
2517.47 27.2704
2517.52 37.2446
2517.57 53.6045
2517.62 82.7356
2517.67 139.975
2517.70 189.302
2517.72 263.329
2517.76 422.096
2517.80 526.419
2517.84 422.087
2517.88 262.980
2517.90 194.129
2517.92 146.651
2517.97 89.3953
2518.02 58.5835
2518.06 41.2906
2518.11 30.3546
2518.16 23.3240
2518.25 14.8915
2518.34 10.3037
2518.43 7.54296
2518.62 4.54664
2518.81 3.02852
2518.99 2.16389
2519.18 1.62030
2519.36 1.26004
2519.73 0.822668
2520.10 0.579541
2520.48 0.430237
2520.85 0.332035
2521.59 0.214871
2522.33 0.150480
2523.82 0.0856905
2525.30 0.0553635
2526.79 0.0387881
2529.75 0.0222302
2535.69 0.0103676
2541.63 0.00625283
2553.51 0.00348047
2565.39 0.00283295
2577.27 0.00316773
2589.14 0.00510822
2595.08 0.00799521
2598.05 0.0109036
2601.02 0.0162318
2603.99 0.0276546
2605.48 0.0390476
2606.96 0.0598156
2607.70 0.0773433
2608.45 0.104082
2609.19 0.147974
2609.93 0.227303
2610.30 0.293811
2610.67 0.394324
2611.05 0.557155
2611.42 0.846799
2611.60 1.08549
2611.79 1.43898
2611.97 2.00152
2612.16 2.96345
2612.34 4.83781
2612.44 6.51479
2612.53 9.18752
2612.62 13.9321
2612.72 23.3490
2612.76 31.9618
2612.81 45.4539
2612.85 68.0265
2612.90 106.530
2612.95 170.484
2613.00 213.130
2613.05 170.476
2613.10 106.525
2613.14 74.7583
2613.17 53.8148
2613.21 39.9923
2613.24 30.6335
2613.32 19.3904
2613.39 13.3332
2613.46 9.65347
2613.53 7.29711
2613.67 4.58951
2613.82 3.13817
2613.96 2.28349
2614.11 1.73208
2614.25 1.36067
2614.54 0.901990
2614.82 0.641519
2615.11 0.479622
2615.40 0.372505
2615.97 0.243174
2616.54 0.171365
2617.12 0.127416
2617.69 0.0986254
2618.84 0.0643377
2619.99 0.0455399
2622.28 0.0267079
2624.57 0.0179681
2626.87 0.0132551
2631.46 0.00871620
2636.05 0.00684919
2640.64 0.00613052
2649.82 0.00656557
2654.41 0.00764872
2659.00 0.00958773
2663.59 0.0130091
2668.17 0.0194521
2670.47 0.0249502
2672.76 0.0333952
2675.06 0.0472968
2677.35 0.0725365
2678.50 0.0937120
2679.65 0.125840
2680.80 0.178050
2681.94 0.271331
2682.52 0.348372
2683.09 0.463627
2683.38 0.543989
2683.66 0.647194
2683.95 0.782766
2684.24 0.964997
2684.38 1.08176
2684.52 1.21992
2684.67 1.38748
2684.81 1.59032
2684.96 1.84274
2685.10 2.15738
2685.24 2.55917
2685.38 3.08308
2685.53 3.78887
2685.67 4.75444
2685.82 6.14246
2685.96 8.19627
2686.10 11.4446
2686.25 16.8364
2686.39 26.4561
2686.46 34.0809
2686.53 44.2702
2686.67 70.9666
2686.80 88.5973
2686.94 70.7470
2687.07 44.2618
2687.18 29.3377
2687.30 20.1740
2687.41 14.4840
2687.52 10.8103
2687.75 6.60506
2687.97 4.41985
2688.20 3.15397
2688.43 2.35948
2688.88 1.46084
2689.33 0.990568
2689.78 0.715677
2690.23 0.540696
2690.68 0.423010
2691.59 0.279010
2692.49 0.197755
2693.39 0.147470
2694.29 0.114210
2696.10 0.0743222
2697.91 0.0522526
2699.71 0.0387684
2701.52 0.0299311
2705.13 0.0194309
2708.74 0.0136689
2712.36 0.0101668
2715.97 0.00788060
2723.19 0.00517310
2730.42 0.00369189
2737.64 0.00279590
2744.87 0.00221661
2759.32 0.00156175
2773.77 0.00131839
2780.99 0.00139077
2788.22 0.00186973
2795.44 0.00492852
2799.05 0.0173372
2799.96 0.0300928
2800.86 0.0660292
2801.31 0.115499
2801.76 0.252475
2801.99 0.437590
2802.10 0.617748
2802.22 0.937251
2802.33 1.58731
2802.39 2.20633
2802.44 3.24547
2802.50 5.27788
2802.53 7.04588
2802.55 9.85584
2802.58 14.6890
2802.61 23.9380
2802.62 31.9712
2802.64 44.3416
2802.65 64.1163
2802.67 96.3307
2802.68 153.949
2802.70 192.665
2802.72 153.949
2802.73 96.3314
2802.75 54.4647
2802.78 32.6846
2802.80 21.3614
2802.82 15.1602
2802.84 11.1166
2802.86 8.47951
2802.90 5.43404
2802.94 3.73884
2802.98 2.74525
2803.07 1.64843
2803.15 1.09760
2803.23 0.782769
2803.40 0.456681
2803.73 0.209969
2804.06 0.120482
2804.72 0.0547998
2805.38 0.0313809
2806.71 0.0144039
2808.04 0.00840179
2813.34 0.00253813
2823.94 0.00100577
2834.54 0.000681981
2845.14 0.000545758
2866.35 0.000418919
2887.55 0.000359036
2908.75 0.000332034
2929.96 0.000341912
2951.16 0.000505607
2961.76 0.00119654
2967.07 0.00394128
2969.72 0.0147597
2971.04 0.0567496
2971.37 0.0991209
2971.70 0.215225
2971.87 0.370332
2972.04 0.777034
2972.12 1.29411
2972.20 2.56171
2972.24 4.04628
2972.28 7.14707
2972.31 10.2596
2972.33 15.4089
2972.35 25.6772
2972.37 45.4155
2972.38 72.5798
2972.40 90.8326
2972.42 72.5800
2972.43 45.4159
2972.45 29.4024
2972.47 19.4234
2972.48 13.5387
2972.50 9.88680
2972.53 5.86780
2972.56 3.85636
2972.63 2.01646
2972.69 1.23315
2972.82 0.596660
2972.95 0.350383
2973.20 0.162702
2973.46 0.0938060
2973.97 0.0427825
2974.48 0.0244573
2976.52 0.00642827
2980.61 0.00183833
2988.79 0.000692557
3005.15 0.000469943
3021.51 0.000767234
3029.69 0.00210637
3033.78 0.00741260
3035.82 0.0282401
3036.33 0.0494214
3036.85 0.108446
3037.10 0.188699
3037.36 0.405932
3037.48 0.692218
3037.61 1.43459
3037.68 2.35219
3037.71 3.17811
3037.74 4.52160
3037.77 6.91260
3037.80 11.7422
3037.82 16.1845
3037.84 23.4401
3037.85 35.9889
3037.87 57.7336
3037.88 92.7171
3037.90 115.468
3037.92 92.7174
3037.93 57.7341
3037.95 35.9894
3037.96 24.0345
3037.98 16.5381
3037.99 12.1942
3038.03 7.22765
3038.06 4.80591
3038.09 3.38054
3038.12 2.52592
3038.18 1.54934
3038.30 0.748411
3038.42 0.440786
3038.67 0.204773
3038.91 0.117864
3039.40 0.0537265
3039.89 0.0307333
3041.85 0.00807464
3045.77 0.00231702
3053.60 0.000937009
3061.44 0.00103314
3065.35 0.00235867
3067.31 0.00772246
3068.29 0.0284360
3068.78 0.105588
3069.03 0.372924
3069.09 0.610654
3069.15 1.17180
3069.18 1.80309
3069.21 3.03458
3069.24 6.12649
3069.25 9.35093
3069.27 15.3005
3069.29 24.6162
3069.30 30.5507
3069.32 24.6163
3069.33 15.2507
3069.35 9.07432
3069.36 5.66983
3069.40 2.75743
3069.43 1.57631
3069.46 1.02509
3069.53 0.525677
3069.60 0.320380
3069.86 0.0898923
3070.40 0.0241900
3071.46 0.00660038
3073.60 0.00205819
3077.87 0.000923503
3086.40 0.000768234
3094.93 0.00144426
3099.20 0.00425182
3101.34 0.0152748
3102.40 0.0578737
3102.67 0.100594
3102.94 0.216655
3103.07 0.371131
3103.20 0.771351
3103.27 1.27410
3103.34 2.45416
3103.37 3.81516
3103.40 6.53812
3103.42 9.17526
3103.44 13.2907
3103.45 21.0583
3103.47 35.2683
3103.48 55.8712
3103.50 70.4243
3103.52 55.8714
3103.53 35.1563
3103.54 25.1984
3103.55 18.2540
3103.57 10.7168
3103.60 6.91656
3103.62 4.79418
3103.66 2.63591
3103.70 1.67305
3103.79 0.836689
3103.87 0.502529
3104.04 0.237984
3104.21 0.138352
3104.55 0.0636236
3104.89 0.0366040
3106.24 0.00977540
3108.95 0.00289361
3114.36 0.00118888
3125.19 0.000881704
3146.84 0.00142508
3157.67 0.00231408
3168.49 0.00478774
3173.91 0.00809572
3179.32 0.0169352
3182.03 0.0284154
3184.73 0.0582720
3186.09 0.0963479
3186.77 0.132265
3187.44 0.194672
3188.12 0.320968
3188.46 0.441138
3188.79 0.652433
3189.13 1.08580
3189.30 1.49972
3189.47 2.22557
3189.64 3.68604
3189.73 5.06031
3189.81 7.36524
3189.89 11.8058
3189.94 15.6570
3189.98 21.7367
3190.02 32.4265
3190.06 52.3144
3190.08 69.4008
3190.11 95.4356
3190.13 136.501
3190.15 203.761
3190.17 327.158
3190.20 407.363
3190.23 327.164
3190.25 203.777
3190.27 144.131
3190.29 103.583
3190.31 76.8872
3190.33 59.6471
3190.37 37.6652
3190.40 26.0064
3190.44 18.8466
3190.48 14.3811
3190.55 9.19131
3190.63 6.39430
3190.70 4.74880
3190.85 3.02023
3191.00 2.19754
3191.15 1.78473
3191.45 1.55116
3191.75 1.90202
3191.90 2.40569
3192.05 3.36130
3192.20 5.36165
3192.27 7.24050
3192.35 10.3568
3192.42 16.2453
3192.46 21.2198
3192.49 28.8626
3192.53 41.8258
3192.57 64.4678
3192.61 109.030
3192.63 148.766
3192.64 206.315
3192.67 330.709
3192.70 412.472
3192.73 330.697
3192.76 206.297
3192.79 119.894
3192.82 75.5584
3192.85 51.0618
3192.88 36.5217
3192.91 27.0721
3192.94 20.9869
3193.01 13.6403
3193.07 9.51463
3193.13 7.04695
3193.26 4.31939
3193.38 2.91788
3193.50 2.11466
3193.63 1.60425
3193.75 1.26430
3194.00 0.847309
3194.25 0.611149
3194.75 0.365515
3195.25 0.245658
3195.75 0.177644
3196.74 0.106486
3197.74 0.0714693
3198.73 0.0515318
3200.73 0.0306403
3204.71 0.0146044
3208.70 0.00860057
3216.67 0.00408612
3224.63 0.00243667
3240.57 0.00122825
3256.51 0.000806902
3288.39 0.000581439
3304.33 0.000792307
3312.30 0.00180482
3316.28 0.00585706
3318.28 0.0217746
3319.27 0.0831030
3319.52 0.144299
3319.77 0.310639
3319.90 0.530324
3320.02 1.09396
3320.08 1.80224
3320.14 3.45048
3320.18 5.25683
3320.21 8.88022
3320.22 12.3237
3320.24 17.5554
3320.25 27.1454
3320.27 43.2088
3320.28 68.9279
3320.30 86.3502
3320.32 68.9282
3320.33 43.2091
3320.35 28.7899
3320.36 19.4621
3320.37 13.7910
3320.39 10.1915
3320.42 6.14309
3320.44 4.13035
3320.50 2.17513
3320.55 1.34552
3320.66 0.655535
3320.77 0.387974
3321.00 0.180620
3321.22 0.104332
3322.10 0.0273398
3323.88 0.00728471
3327.42 0.00216916
3334.50 0.000885088
3348.68 0.000599618
3377.02 0.000755951
3405.37 0.00205353
3412.45 0.00339283
3419.54 0.00718551
3423.08 0.0124520
3426.62 0.0273403
3428.40 0.0479263
3429.28 0.0684006
3430.17 0.105562
3431.05 0.184280
3431.50 0.261688
3431.94 0.400591
3432.16 0.516011
3432.38 0.688580
3432.60 0.966227
3432.83 1.44962
3433.05 2.41637
3433.16 3.30659
3433.27 4.77328
3433.38 7.49757
3433.43 9.78213
3433.49 13.2571
3433.55 19.0036
3433.60 28.8914
3433.66 47.7167
3433.68 63.7848
3433.71 85.7953
3433.76 137.289
3433.80 171.623
3433.85 137.285
3433.89 85.7930
3433.93 53.3372
3433.98 34.9315
3434.02 24.2175
3434.07 17.7427
3434.11 13.4166
3434.15 10.5279
3434.24 6.92037
3434.33 4.86236
3434.41 3.60913
3434.59 2.20969
3434.76 1.48605
3434.94 1.06878
3435.11 0.804050
3435.29 0.627533
3435.64 0.412215
3435.98 0.291344
3436.33 0.216806
3436.68 0.167631
3437.38 0.108837
3438.08 0.0763723
3439.47 0.0436400
3440.87 0.0282768
3442.26 0.0198710
3445.06 0.0114556
3450.64 0.00541989
3456.22 0.00332823
3478.55 0.00165334
3500.88 0.00337997
3506.46 0.00550513
3512.05 0.0116256
3514.84 0.0201578
3517.63 0.0442595
3519.02 0.0774914
3519.72 0.110445
3520.42 0.170020
3521.12 0.295516
3521.47 0.418135
3521.81 0.636565
3521.99 0.816869
3522.16 1.08418
3522.34 1.51054
3522.51 2.24137
3522.69 3.67205
3522.77 4.94891
3522.86 7.01591
3522.95 10.6685
3522.99 13.6722
3523.04 17.9634
3523.08 24.6885
3523.12 35.2882
3523.17 53.7546
3523.21 85.1628
3523.26 136.875
3523.30 170.356
3523.35 135.673
3523.39 85.1607
3523.42 60.2461
3523.45 44.0767
3523.49 33.1789
3523.52 25.6711
3523.58 16.3755
3523.64 11.3222
3523.70 8.22369
3523.77 6.25617
3523.89 3.94464
3524.02 2.70772
3524.14 1.97141
3524.27 1.49856
3524.39 1.17720
3524.64 0.781193
3524.89 0.555869
3525.14 0.415625
3525.39 0.322473
3525.89 0.210337
3526.39 0.147994
3527.39 0.0847661
3528.39 0.0549092
3529.39 0.0385147
3531.39 0.0220313
3535.39 0.0101166
3539.38 0.00590567
3547.38 0.00287806
3555.38 0.00181478
3571.37 0.00106458
3587.36 0.000823594
3603.35 0.000741395
3619.35 0.000734172
3651.33 0.000871556
3683.32 0.00127938
3699.31 0.00169971
3715.30 0.00246271
3723.30 0.00310036
3731.29 0.00406742
3739.29 0.00564237
3747.29 0.00848153
3751.28 0.0108555
3755.28 0.0144640
3759.28 0.0203551
3763.28 0.0309913
3765.28 0.0398799
3767.28 0.0533599
3769.28 0.0752591
3771.27 0.114422
3773.27 0.195282
3774.27 0.272767
3774.77 0.330153
3775.27 0.407626
3775.77 0.516232
3776.02 0.587569
3776.27 0.674749
3776.52 0.782802
3776.77 0.918912
3777.02 1.09361
3777.27 1.32174
3777.52 1.62993
3777.77 2.05795
3778.02 2.67526
3778.27 3.60792
3778.52 5.10060
3778.77 7.66447
3778.90 9.66105
3779.02 12.4329
3779.15 16.3283
3779.27 21.7148
3779.49 34.7411
3779.70 43.4228
3779.92 34.7363
3780.13 21.7101
3780.28 15.2648
3780.44 11.0054
3780.59 8.18850
3780.75 6.27817
3781.05 3.97940
3781.36 2.72882
3781.67 1.97828
3781.98 1.49827
3782.59 0.941805
3783.21 0.645251
3783.82 0.469698
3784.44 0.357246
3785.05 0.280979
3786.28 0.187183
3787.51 0.134060
3788.74 0.101134
3789.97 0.0793885
3792.43 0.0535361
3794.90 0.0396439
3797.36 0.0317323
3799.82 0.0273417
3804.74 0.0258869
3807.20 0.0292634
3809.66 0.0377678
3810.89 0.0456867
3812.12 0.0582592
3813.35 0.0794451
3814.58 0.118529
3815.20 0.151675
3815.81 0.202295
3816.43 0.285239
3817.04 0.435045
3817.35 0.560173
3817.66 0.748545
3817.97 1.05350
3818.27 1.59089
3818.43 2.03095
3818.58 2.68267
3818.73 3.70643
3818.89 5.43287
3819.04 8.73477
3819.12 11.6283
3819.20 16.2030
3819.27 24.0111
3819.35 38.7728
3819.39 51.6301
3819.43 70.6667
3819.46 100.397
3819.50 147.876
3819.55 236.140
3819.60 295.799
3819.65 236.133
3819.70 147.872
3819.73 109.666
3819.76 82.3088
3819.82 49.6740
3819.88 32.6020
3819.94 22.8449
3820.00 16.8260
3820.06 12.8789
3820.18 8.24204
3820.30 5.69667
3820.42 4.17779
3820.65 2.51434
3820.89 1.67471
3821.13 1.19666
3821.37 0.897821
3821.61 0.698690
3822.09 0.457809
3822.57 0.323778
3823.05 0.241307
3823.53 0.187175
3824.48 0.122538
3825.44 0.0869084
3827.35 0.0509550
3829.27 0.0340309
3831.18 0.0247033
3835.01 0.0152573
3838.84 0.0107893
3842.67 0.00834398
3850.32 0.00606944
3857.98 0.00565893
3865.63 0.00757615
3869.46 0.0110819
3873.29 0.0216103
3875.20 0.0364649
3877.11 0.0786086
3878.07 0.136815
3878.55 0.194670
3879.03 0.299347
3879.51 0.520503
3879.75 0.736579
3879.99 1.12207
3880.22 1.91396
3880.34 2.67156
3880.46 3.97066
3880.58 6.53363
3880.64 8.85206
3880.70 12.5618
3880.76 19.2900
3880.79 24.8215
3880.82 33.0156
3880.85 45.7794
3880.88 66.8754
3880.91 103.986
3880.94 170.809
3880.97 273.540
3881.00 341.348
3881.03 273.538
3881.06 170.514
3881.09 97.6719
3881.13 60.8948
3881.16 40.8404
3881.19 29.0448
3881.23 21.4403
3881.26 16.5558
3881.32 10.6882
3881.39 7.41239
3881.46 5.45827
3881.59 3.30772
3881.72 2.20911
3881.85 1.58242
3882.12 0.924226
3882.39 0.604500
3882.65 0.426667
3883.18 0.245300
3883.71 0.159263
3884.24 0.111954
3885.30 0.0642585
3887.42 0.0296809
3889.55 0.0174116
3893.79 0.00852371
3898.03 0.00534310
3906.52 0.00298298
3915.01 0.00209858
3931.98 0.00140777
3948.96 0.00115863
3965.93 0.00109887
3982.91 0.00125993
3999.88 0.00246858
4008.37 0.00736255
4012.62 0.0267120
4013.68 0.0465460
4014.74 0.102373
4015.27 0.179150
4015.80 0.391619
4016.06 0.677535
4016.20 0.956390
4016.33 1.44568
4016.46 2.44465
4016.53 3.37424
4016.59 4.95113
4016.66 8.00731
4016.69 10.6546
4016.73 14.8354
4016.76 21.9599
4016.79 35.3975
4016.81 47.3189
4016.83 64.3279
4016.84 92.6913
4016.86 134.730
4016.88 215.571
4016.90 269.467
4016.92 215.571
4016.94 134.730
4016.97 76.0153
4016.99 46.4730
4017.02 30.7597
4017.04 21.9605
4017.07 16.2123
4017.09 12.4291
4017.14 8.00775
4017.19 5.53664
4017.24 4.07445
4017.34 2.46713
4017.44 1.64528
4017.54 1.17457
4017.73 0.685815
4017.93 0.448188
4018.13 0.316239
4018.52 0.181656
4019.31 0.0826908
4020.10 0.0473143
4021.68 0.0216936
4023.26 0.0126419
4029.57 0.00385760
4042.20 0.00170687
4054.82 0.00140472
4067.45 0.00143908
4080.08 0.00169121
4092.70 0.00237629
4099.02 0.00322768
4105.33 0.00545865
4111.64 0.0167494
4113.22 0.0282089
4114.80 0.0604605
4115.59 0.104907
4116.38 0.229004
4116.77 0.398058
4116.97 0.563325
4117.17 0.858487
4117.36 1.47047
4117.46 2.05638
4117.56 3.06261
4117.66 5.06203
4117.71 6.85908
4117.76 9.80017
4117.81 15.2326
4117.83 19.7700
4117.86 26.2605
4117.88 36.8975
4117.91 53.9769
4117.93 85.9201
4117.95 144.642
4117.98 230.413
4118.00 289.293
4118.02 230.413
4118.05 144.642
4118.06 105.619
4118.07 79.3625
4118.10 47.2345
4118.13 30.7226
4118.16 21.3972
4118.19 15.6917
4118.22 11.9722
4118.28 7.60229
4118.34 5.24203
4118.39 3.82854
4118.51 2.29555
4118.63 1.52738
4118.74 1.08894
4118.97 0.633543
4119.21 0.414210
4119.44 0.292090
4119.90 0.168180
4120.83 0.0773436
4121.75 0.0449708
4123.61 0.0216355
4125.46 0.0134893
4132.88 0.00617128
4136.59 0.00571979
4140.30 0.00587052
4147.72 0.00752045
4151.43 0.00920792
4155.14 0.0119001
4158.84 0.0164108
4162.55 0.0246861
4164.41 0.0316652
4166.26 0.0423058
4168.12 0.0597120
4169.97 0.0910632
4170.90 0.117185
4171.83 0.156544
4172.75 0.219931
4173.68 0.331715
4174.14 0.422863
4174.61 0.557144
4174.84 0.649837
4175.07 0.767681
4175.30 0.920610
4175.53 1.12294
4175.77 1.40092
4176.00 1.79521
4176.23 2.37976
4176.46 3.29144
4176.58 3.95500
4176.69 4.83392
4176.81 6.02771
4176.93 7.69625
4177.04 10.1039
4177.16 13.6954
4177.27 19.2047
4177.39 27.5871
4177.54 44.1375
4177.70 55.1690
4177.86 44.1334
4178.01 27.5832
4178.18 16.1948
4178.36 10.1773
4178.53 6.85961
4178.70 4.90337
4178.87 3.65743
4179.04 2.82573
4179.39 1.82752
4179.73 1.27404
4180.07 0.938456
4180.76 0.568680
4181.45 0.380964
4182.13 0.272938
4182.82 0.205179
4183.51 0.159919
4184.88 0.105128
4186.26 0.0744992
4187.63 0.0556701
4189.00 0.0432862
4191.75 0.0285132
4194.50 0.0203937
4197.25 0.0154659
4199.99 0.0122641
4205.49 0.00852116
4210.98 0.00654261
4221.97 0.00478619
4232.96 0.00439793
4243.95 0.00514500
4254.94 0.0100224
4257.69 0.0147374
4260.44 0.0274692
4261.81 0.0445470
4263.19 0.0914679
4263.87 0.154897
4264.56 0.328503
4264.91 0.560140
4265.08 0.783437
4265.25 1.17237
4265.42 1.95392
4265.51 2.67676
4265.59 3.86942
4265.68 6.10563
4265.72 8.01665
4265.76 10.9603
4265.81 15.8001
4265.85 24.4461
4265.89 41.5036
4265.91 55.8318
4265.93 77.1634
4265.97 123.083
4266.00 154.327
4266.03 123.082
4266.07 77.1630
4266.09 53.4397
4266.11 38.3071
4266.14 28.3815
4266.16 21.6922
4266.21 13.5747
4266.26 9.28816
4266.31 6.68953
4266.36 5.06577
4266.45 3.17373
4266.55 2.17206
4266.65 1.58003
4266.84 0.948002
4267.03 0.633061
4267.23 0.455799
4267.61 0.273371
4268.39 0.142439
4269.16 0.105198
4269.94 0.108502
4270.71 0.170469
4271.10 0.268183
4271.49 0.544853
4271.68 0.917267
4271.78 1.27635
4271.87 1.89688
4271.97 3.14191
4272.02 4.30164
4272.07 6.19241
4272.12 9.75399
4272.14 12.7143
4272.16 17.2144
4272.19 24.4799
4272.21 37.1246
4272.24 61.1383
4272.25 81.1819
4272.26 111.972
4272.28 177.547
4272.30 223.642
4272.32 177.546
4272.34 111.687
4272.36 67.0353
4272.38 43.4044
4272.40 29.8710
4272.42 21.6314
4272.44 16.3156
4272.46 12.7131
4272.50 8.31293
4272.54 5.84480
4272.58 4.32900
4272.66 2.64617
4272.74 1.78428
4272.82 1.28538
4272.98 0.760480
4273.30 0.360063
4273.62 0.213020
4274.26 0.103577
4274.90 0.0636519
4276.19 0.0337714
4277.47 0.0226185
4282.59 0.0108432
4287.72 0.00869311
4292.85 0.00841495
4303.10 0.0100510
4313.35 0.0143466
4318.48 0.0181493
4323.60 0.0239988
4328.73 0.0335569
4333.86 0.0506379
4336.42 0.0647093
4338.98 0.0856879
4340.27 0.100276
4341.55 0.118945
4342.19 0.130316
4342.83 0.143404
4343.47 0.158572
4344.11 0.176251
4344.75 0.197095
4345.39 0.221861
4346.03 0.251591
4346.67 0.287696
4347.32 0.332120
4347.96 0.387597
4348.60 0.458073
4349.24 0.549228
4349.88 0.670263
4350.52 0.835182
4351.16 1.06729
4351.80 1.40617
4352.44 1.92583
4353.08 2.76486
4353.72 4.19371
4354.36 6.67999
4355.03 10.6873
4355.70 13.3504
4356.37 10.6767
4357.04 6.67093
4357.48 4.80593
4357.93 3.53797
4358.82 2.07649
4359.71 1.33924
4360.59 0.927686
4361.48 0.677821
4362.37 0.515799
4364.15 0.326499
4365.93 0.224679
4367.71 0.163896
4369.48 0.124785
4371.26 0.0981787
4374.82 0.0653229
4378.37 0.0466053
4381.93 0.0349422
4385.48 0.0271890
4392.59 0.0178467
4399.70 0.0126493
4406.81 0.00946358
4413.92 0.00737236
4428.15 0.00488733
4442.37 0.00352982
4456.59 0.00271679
4470.81 0.00220304
4499.25 0.00167356
4527.69 0.00162944
4541.92 0.00191694
4556.14 0.00293673
4563.25 0.00442147
4570.36 0.00867480
4573.91 0.0145934
4575.69 0.0205038
4577.47 0.0312855
4579.25 0.0542718
4580.14 0.0770443
4581.02 0.118191
4581.47 0.152650
4581.91 0.204718
4582.36 0.289247
4582.80 0.439213
4583.02 0.562955
4583.25 0.746402
4583.47 1.03646
4583.69 1.53452
4583.91 2.49749
4584.02 3.35567
4584.13 4.73693
4584.25 7.15712
4584.36 11.9260
4584.41 16.2459
4584.47 22.9881
4584.52 34.4407
4584.58 53.7698
4584.64 85.8997
4584.70 107.558
4584.76 85.8967
4584.82 53.7680
4584.88 33.9161
4584.94 22.5290
4584.99 15.7772
4585.05 11.5646
4585.16 6.90032
4585.28 4.55100
4585.39 3.21652
4585.51 2.39004
4585.73 1.46542
4585.96 0.986965
4586.19 0.710327
4586.42 0.535525
4586.65 0.418130
4587.10 0.274986
4587.56 0.194733
4588.02 0.145185
4588.47 0.112469
4589.39 0.0732884
4590.30 0.0516466
4592.12 0.0298187
4593.95 0.0195745
4595.77 0.0139691
4599.42 0.00836240
4606.73 0.00435577
4614.03 0.00299291
4628.63 0.00218193
4643.23 0.00223877
4657.84 0.00298307
4665.14 0.00384156
4672.44 0.00545911
4676.09 0.00683791
4679.74 0.00895480
4683.39 0.0124416
4687.04 0.0187905
4688.87 0.0241364
4690.69 0.0322882
4692.52 0.0456400
4694.34 0.0697551
4695.26 0.0898993
4696.17 0.120389
4697.08 0.169739
4698.00 0.257297
4698.91 0.436132
4699.36 0.604883
4699.82 0.894212
4700.05 1.12446
4700.28 1.45406
4700.39 1.67554
4700.51 1.95117
4700.62 2.29987
4700.73 2.74946
4700.85 3.34205
4700.96 4.14350
4701.08 5.26088
4701.19 6.87560
4701.30 9.30896
4701.42 13.1529
4701.53 19.5085
4701.65 30.1952
4701.77 48.4322
4701.90 60.4809
4702.03 48.2769
4702.16 30.1921
4702.29 17.8154
4702.43 11.2709
4702.57 7.61209
4702.71 5.45101
4702.85 4.06964
4702.99 3.15181
4703.26 2.04303
4703.54 1.42610
4703.82 1.05161
4704.37 0.638075
4704.92 0.427810
4705.47 0.306689
4706.03 0.230669
4706.58 0.179871
4707.69 0.118360
4708.79 0.0839830
4709.90 0.0628679
4711.00 0.0489965
4713.22 0.0325433
4715.43 0.0236257
4717.64 0.0183864
4719.85 0.0152180
4724.28 0.0126638
4726.49 0.0130840
4728.70 0.0152789
4730.91 0.0213745
4733.13 0.0402114
4734.23 0.0668641
4735.34 0.142151
4735.89 0.245365
4736.44 0.530088
4736.72 0.911857
4736.86 1.27909
4737.00 1.92358
4737.14 3.22691
4737.20 4.42791
4737.27 6.44278
4737.34 10.2004
4737.38 13.4807
4737.41 18.4069
4737.45 26.8019
4737.48 41.4865
4737.50 54.2330
4737.52 71.7782
4737.53 97.6179
4737.55 135.581
4737.58 218.631
4737.60 271.169
4737.63 215.227
4737.65 135.580
4737.68 81.2082
4737.71 51.7621
4737.73 35.2227
4737.76 25.5892
4737.79 19.1551
4737.81 14.8375
4737.87 9.68826
4737.92 6.76195
4737.97 5.00651
4738.08 3.04351
4738.19 2.04247
4738.29 1.46474
4738.51 0.858685
4738.72 0.564116
4738.94 0.399158
4739.36 0.230670
4740.22 0.106624
4741.07 0.0621703
4742.79 0.0298009
4744.50 0.0182736
4747.92 0.00988888
4751.34 0.00691872
4758.19 0.00497548
4765.03 0.00490624
4771.88 0.00635228
4778.72 0.0116221
4782.15 0.0192813
4785.57 0.0411751
4787.28 0.0715530
4788.14 0.101791
4788.99 0.156689
4789.85 0.273005
4790.27 0.387392
4790.70 0.591996
4790.92 0.761788
4791.13 1.01673
4791.34 1.42482
4791.56 2.13814
4791.77 3.55643
4791.88 4.85896
4791.99 7.02445
4792.09 11.0072
4792.15 14.4120
4792.20 19.5014
4792.25 27.9003
4792.31 42.2846
4792.36 69.5065
4792.39 92.6314
4792.41 124.561
4792.46 198.971
4792.50 249.006
4792.54 198.967
4792.59 124.417
4792.62 89.6289
4792.65 66.0687
4792.70 38.8726
4792.76 25.1109
4792.82 17.4124
4792.88 12.7315
4792.94 9.69293
4793.05 6.13749
4793.17 4.21201
4793.29 3.07374
4793.52 1.84101
4793.75 1.22212
4793.98 0.871015
4794.21 0.652056
4794.45 0.506412
4794.91 0.330551
4795.38 0.232737
4796.31 0.133502
4797.24 0.0866169
4798.16 0.0608656
4800.02 0.0349605
4803.74 0.0162128
4807.46 0.00956937
4814.90 0.00476629
4822.33 0.00306050
4837.20 0.00183928
4852.07 0.00146111
4881.82 0.00174967
4896.69 0.00373782
4904.12 0.0104903
4907.84 0.0340027
4908.77 0.0570739
4909.70 0.120688
4910.16 0.207151
4910.63 0.444022
4910.86 0.761842
4910.98 1.06743
4911.09 1.60392
4911.21 2.67837
4911.27 3.67306
4911.33 5.34150
4911.38 8.45245
4911.41 11.1204
4911.44 15.2451
4911.47 22.0636
4911.50 34.3465
4911.51 44.7891
4911.53 58.9165
4911.54 81.3702
4911.56 113.144
4911.58 182.082
4911.60 226.020
4911.62 182.082
4911.64 112.880
4911.66 81.3708
4911.67 58.9172
4911.69 43.9655
4911.70 33.7776
4911.73 21.4644
4911.76 14.8948
4911.79 10.7918
4911.82 8.16183
4911.88 5.15859
4911.94 3.52782
4912.00 2.57560
4912.12 1.53984
4912.24 1.02462
4912.36 0.732005
4912.59 0.429666
4913.07 0.205197
4913.55 0.125633
4914.50 0.0725079
4915.45 0.0636317
4916.40 0.0803072
4917.35 0.149499
4917.83 0.249771
4918.30 0.529527
4918.54 0.904395
4918.66 1.26600
4918.78 1.90051
4918.90 3.16934
4918.96 4.35411
4919.02 6.30335
4919.08 9.98957
4919.11 13.1540
4919.14 17.8451
4919.17 25.7897
4919.20 39.3880
4919.23 66.8594
4919.24 90.5435
4919.25 122.292
4919.28 195.666
4919.30 244.584
4919.32 195.666
4919.35 122.292
4919.37 79.9678
4919.39 54.4126
4919.41 38.7658
4919.43 29.1773
4919.47 17.6450
4919.50 11.8410
4919.54 8.40136
4919.58 6.30266
4919.66 3.89360
4919.74 2.63947
4919.82 1.90603
4919.98 1.13074
4920.14 0.746584
4920.29 0.531146
4920.61 0.308577
4921.24 0.143208
4921.87 0.0833336
4923.13 0.0393405
4924.39 0.0234253
4929.43 0.00725616
4939.51 0.00274564
4949.59 0.00185295
4959.67 0.00157205
4979.84 0.00152284
5000.00 0.00178607
5014.38 0.00215773
5028.77 0.00276416
5043.15 0.00378561
5057.54 0.00565485
5064.73 0.00722357
5071.92 0.00960550
5079.11 0.0134779
5086.30 0.0204118
5089.90 0.0261545
5093.50 0.0347871
5097.09 0.0486487
5100.69 0.0730426
5102.49 0.0928959
5104.28 0.122222
5105.18 0.142443
5106.08 0.168174
5106.98 0.201610
5107.88 0.246153
5108.33 0.274220
5108.78 0.307298
5109.23 0.346832
5109.68 0.394374
5110.13 0.452495
5110.58 0.524195
5111.03 0.614419
5111.48 0.729445
5111.93 0.879756
5112.37 1.07991
5112.82 1.35498
5113.27 1.74324
5113.72 2.31360
5114.17 3.18004
5114.62 4.54382
5115.07 6.70527
5115.64 10.7244
5116.20 13.4024
5116.77 10.7221
5117.33 6.70378
5117.92 4.05526
5118.50 2.60494
5119.09 1.78356
5119.68 1.28865
5120.26 0.971047
5120.85 0.757198
5122.02 0.498440
5123.20 0.355245
5124.37 0.269330
5126.72 0.180699
5129.07 0.151378
5130.24 0.155750
5131.41 0.180312
5132.59 0.248123
5133.17 0.319367
5133.76 0.448561
5134.35 0.714135
5134.64 0.963334
5134.93 1.38622
5135.23 2.19075
5135.37 2.89273
5135.52 3.98747
5135.67 5.85045
5135.81 9.29373
5135.89 12.2418
5135.96 16.5991
5136.03 23.3006
5136.11 33.6399
5136.20 53.9176
5136.30 67.2543
5136.40 53.6930
5136.50 33.6363
5136.56 23.8736
5136.63 17.4278
5136.70 13.0982
5136.76 10.1243
5136.90 6.49652
5137.03 4.49079
5137.17 3.27355
5137.30 2.49458
5137.57 1.58720
5137.84 1.09944
5138.11 0.809906
5138.64 0.496200
5139.18 0.339086
5139.72 0.249132
5140.79 0.154900
5141.86 0.108531
5142.94 0.0820038
5145.09 0.0537502
5147.23 0.0393007
5149.38 0.0306476
5153.68 0.0208356
5157.97 0.0154487
5162.27 0.0120645
5170.86 0.00809863
5179.45 0.00590256
5188.04 0.00454900
5205.22 0.00305783
5222.40 0.00239653
5239.58 0.00239325
5248.17 0.00290720
5256.76 0.00473024
5261.05 0.00741183
5265.35 0.0151499
5267.49 0.0259595
5269.64 0.0565222
5270.71 0.0987161
5271.79 0.216544
5272.33 0.376682
5272.59 0.533867
5272.86 0.813516
5273.13 1.39122
5273.27 1.94008
5273.40 2.89009
5273.53 4.74998
5273.60 6.42983
5273.67 9.17264
5273.73 14.0818
5273.77 18.1891
5273.80 24.0919
5273.84 33.5724
5273.87 48.7715
5273.90 76.3515
5273.94 124.957
5273.97 201.167
5274.00 249.928
5274.03 198.705
5274.07 124.956
5274.10 78.5556
5274.13 52.5279
5274.16 36.9688
5274.19 27.1986
5274.25 16.3096
5274.31 10.7902
5274.37 7.64202
5274.43 5.68673
5274.55 3.49326
5274.67 2.35898
5274.79 1.69847
5275.03 1.00002
5275.27 0.658047
5275.51 0.465670
5275.99 0.268398
5276.95 0.122565
5277.91 0.0701372
5279.83 0.0320189
5281.75 0.0184966
5285.59 0.00873060
5289.43 0.00527087
5297.11 0.00275451
5304.79 0.00184208
5320.15 0.00114499
5335.52 0.000869646
5366.24 0.000656970
5381.61 0.000695509
5389.29 0.00105614
5393.13 0.00255625
5395.05 0.00847250
5396.01 0.0312729
5396.49 0.115833
5396.73 0.406676
5396.85 1.27218
5396.91 3.26972
5396.94 6.45269
5396.95 9.81654
5396.97 15.7106
5396.99 25.4472
5397.00 31.3955
5397.02 24.7999
5397.03 15.7107
5397.05 8.01297
5397.08 4.58788
5397.12 2.03052
5397.20 0.710274
5397.38 0.211728
5397.72 0.0582404
5398.42 0.0156189
5399.80 0.00438993
5402.57 0.00150220
5408.10 0.000766578
5419.16 0.000581530
5441.30 0.000592120
5463.43 0.000990300
5474.50 0.00259403
5480.03 0.00889998
5482.80 0.0336714
5483.49 0.0589483
5484.18 0.129499
5484.52 0.225671
5484.87 0.488952
5485.04 0.837783
5485.22 1.75272
5485.30 2.90969
5485.35 3.95347
5485.39 5.67017
5485.43 8.77656
5485.45 11.4313
5485.48 15.2253
5485.50 21.5212
5485.52 31.6617
5485.54 50.9765
5485.56 85.8158
5485.58 138.711
5485.60 171.634
5485.62 135.895
5485.64 85.8160
5485.65 60.2892
5485.67 43.4364
5485.68 32.3006
5485.70 24.7539
5485.72 15.6792
5485.75 10.8681
5485.78 7.86231
5485.81 5.93931
5485.86 3.74902
5485.97 1.86647
5486.08 1.11690
5486.30 0.525659
5486.53 0.305106
5486.97 0.139925
5487.41 0.0801909
5489.18 0.0209061
5492.72 0.00572586
5499.80 0.00198320
5506.89 0.00167074
5510.43 0.00285076
5512.20 0.00781072
5513.08 0.0269037
5513.53 0.0974662
5513.75 0.336940
5513.86 1.04031
5513.91 2.59565
5513.94 5.02308
5513.97 11.4640
5513.99 18.4901
5514.00 22.8896
5514.02 18.4901
5514.03 11.4268
5514.06 4.76239
5514.09 2.44207
5514.15 0.948329
5514.27 0.305247
5514.50 0.0877412
5514.97 0.0242299
5515.91 0.00712492
5517.78 0.00272443
5521.53 0.00175266
5529.04 0.00238739
5536.54 0.00755568
5540.29 0.0281872
5541.23 0.0492168
5542.17 0.107912
5542.64 0.187634
5543.11 0.404901
5543.34 0.691998
5543.57 1.43510
5543.69 2.35480
5543.75 3.19245
5543.81 4.53354
5543.87 6.96905
5543.93 11.8209
5543.96 16.4737
5543.98 23.8868
5544.01 36.7492
5544.04 59.7184
5544.07 95.5519
5544.10 119.442
5544.13 95.5512
5544.16 59.7181
5544.18 42.5254
5544.20 31.4554
5544.22 23.5607
5544.24 18.3798
5544.28 11.8211
5544.31 8.17322
5544.35 5.96389
5544.39 4.53375
5544.47 2.88009
5544.55 1.97801
5544.62 1.44606
5544.78 0.865658
5545.09 0.409046
5545.40 0.237776
5546.02 0.109281
5546.64 0.0626944
5547.88 0.0285618
5549.12 0.0164051
5554.09 0.00450490
5564.02 0.00148371
5583.88 0.000738371
5603.74 0.000636293
5623.61 0.000652960
5643.47 0.000737525
5663.33 0.000922874
5673.26 0.00111168
5683.19 0.00153476
5693.12 0.00343399
5698.09 0.0105594
5700.57 0.0382191
5701.19 0.0662624
5701.81 0.143922
5702.12 0.249027
5702.43 0.531554
5702.59 0.898201
5702.74 1.83008
5702.82 2.96349
5702.90 5.51425
5702.94 8.24132
5702.98 13.4863
5703.00 18.2075
5703.02 25.1377
5703.03 36.1230
5703.05 53.6776
5703.08 86.6142
5703.10 107.357
5703.12 85.1522
5703.15 53.6775
5703.16 39.1786
5703.18 29.1410
5703.21 17.6389
5703.24 11.6063
5703.26 8.14893
5703.32 4.60651
5703.38 2.94309
5703.50 1.48505
5703.61 0.894832
5703.85 0.425670
5704.08 0.248094
5704.55 0.114696
5705.01 0.0661471
5706.88 0.0179207
5710.60 0.00557321
5718.06 0.00263475
5725.51 0.00253080
5729.24 0.00363365
5731.11 0.00798656
5732.04 0.0246727
5732.50 0.0864991
5732.74 0.299096
5732.85 0.925116
5732.91 2.34987
5732.94 4.58155
5732.97 11.0272
5732.99 17.7849
5733.00 22.0164
5733.02 17.7849
5733.03 10.9914
5733.05 6.22228
5733.07 3.83249
5733.10 1.77205
5733.18 0.640182
5733.33 0.196379
5733.62 0.0559198
5734.21 0.0163786
5735.40 0.00592212
5737.77 0.00331959
5742.50 0.00297065
5747.24 0.00397261
5749.60 0.00766577
5750.79 0.0216729
5751.38 0.0742698
5751.67 0.260917
5751.82 0.850337
5751.90 2.35182
5751.93 5.07865
5751.95 8.23096
5751.97 14.3956
5751.99 23.3273
5752.00 28.7883
5752.02 22.7332
5752.03 14.3956
5752.05 7.99567
5752.07 4.83744
5752.11 2.23207
5752.18 0.814584
5752.33 0.250330
5752.64 0.0714669
5753.24 0.0210998
5754.45 0.00776651
5756.86 0.00448528
5761.69 0.00402640
5771.34 0.00500877
5780.99 0.00697237
5790.65 0.0106066
5795.47 0.0136589
5800.30 0.0182902
5805.13 0.0258040
5809.95 0.0391917
5812.37 0.0502087
5814.78 0.0666312
5817.20 0.0926861
5818.40 0.111852
5819.61 0.137602
5820.82 0.173385
5821.42 0.196745
5822.02 0.225083
5822.63 0.260031
5823.23 0.303635
5823.83 0.359066
5824.44 0.430952
5825.04 0.526560
5825.64 0.656833
5826.25 0.840516
5826.85 1.10987
5827.45 1.52462
5828.06 2.19659
5828.66 3.34859
5828.96 4.22390
5829.26 5.37451
5829.88 8.60122
5830.50 10.7466
5831.12 8.59334
5831.74 5.37226
5832.38 3.25594
5833.02 2.09433
5833.66 1.43324
5834.30 1.03397
5834.94 0.777240
5835.58 0.604204
5836.86 0.393533
5838.13 0.275865
5839.41 0.203817
5841.97 0.124075
5844.53 0.0833679
5847.09 0.0598721
5849.65 0.0451191
5852.20 0.0352803
5857.32 0.0234872
5862.43 0.0173742
5864.99 0.0159247
5867.55 0.0164936
5870.11 0.0277993
5871.39 0.0767670
5872.03 0.262540
5872.19 0.443557
5872.35 0.919903
5872.43 1.51968
5872.51 2.97652
5872.55 4.63591
5872.59 8.13617
5872.61 11.5138
5872.63 17.3274
5872.65 28.1696
5872.67 49.1616
5872.68 78.7677
5872.70 98.1712
5872.72 78.7678
5872.73 49.0185
5872.75 31.3591
5872.77 20.8356
5872.78 14.5907
5872.80 10.8910
5872.83 6.47335
5872.86 4.31033
5872.92 2.27153
5872.99 1.39719
5873.11 0.682988
5873.24 0.405441
5873.49 0.193268
5873.74 0.114945
5874.75 0.0360314
5876.76 0.0148800
5880.79 0.00852360
5884.82 0.00668600
5888.85 0.00572157
5892.88 0.00521971
5896.91 0.00537793
5900.94 0.00888069
5902.95 0.0242454
5903.96 0.0840040
5904.46 0.305749
5904.59 0.518265
5904.72 1.06687
5904.78 1.74110
5904.84 3.32202
5904.87 5.08441
5904.90 8.48764
5904.94 16.4317
5904.95 24.9773
5904.97 39.6687
5904.98 62.7999
5905.00 79.2155
5905.02 62.8000
5905.03 39.5497
5905.05 24.9775
5905.07 16.4318
5905.08 11.4260
5905.10 8.33202
5905.13 4.93790
5905.16 3.24349
5905.23 1.69608
5905.29 1.03801
5905.42 0.503606
5905.54 0.297976
5906.06 0.0817108
5907.08 0.0233375
5909.12 0.00802854
5913.20 0.00389554
5917.29 0.00294177
5921.38 0.00248858
5937.72 0.00166840
5954.06 0.00127023
5970.40 0.00102907
5986.74 0.000883549
6003.08 0.000834173
6019.42 0.00111993
6027.60 0.00255470
6031.68 0.00834687
6033.72 0.0311190
6034.74 0.118635
6035.00 0.206118
6035.26 0.442493
6035.38 0.753247
6035.51 1.54531
6035.57 2.52071
6035.64 4.79894
6035.67 7.27267
6035.70 12.1723
6035.72 16.5822
6035.73 23.6178
6035.75 35.3853
6035.77 53.8000
6035.78 87.0609
6035.80 107.600
6035.82 85.0938
6035.84 53.8002
6035.85 32.6751
6035.87 21.0361
6035.89 14.4122
6035.91 10.4005
6035.94 6.08203
6035.98 4.00585
6036.05 2.06900
6036.12 1.26476
6036.26 0.609348
6036.41 0.358314
6036.69 0.166356
6036.98 0.0958019
6038.12 0.0251180
6040.40 0.00679770
6044.96 0.00212322
6054.09 0.000930612
6072.33 0.000623245
6090.58 0.000586868
6108.83 0.000632892
6127.08 0.000787096
6145.33 0.00124673
6163.58 0.00361678
6168.14 0.00601632
6172.71 0.0127850
6174.99 0.0221627
6177.27 0.0486088
6178.41 0.0850810
6179.55 0.186731
6180.12 0.325049
6180.41 0.460224
6180.69 0.701405
6180.98 1.19691
6181.12 1.67062
6181.26 2.48416
6181.40 4.08713
6181.47 5.52402
6181.55 7.86338
6181.62 12.1132
6181.65 15.6198
6181.69 20.6540
6181.72 28.6954
6181.76 41.5431
6181.80 64.6461
6181.83 105.052
6181.87 168.089
6181.90 210.114
6181.94 168.087
6181.97 105.051
6182.01 62.9695
6182.04 40.1578
6182.08 27.3358
6182.12 19.8023
6182.15 14.8311
6182.19 11.5678
6182.26 7.53331
6182.34 5.28019
6182.41 3.90055
6182.56 2.37323
6182.70 1.59314
6182.85 1.14246
6183.14 0.669246
6183.43 0.438480
6183.72 0.309741
6184.31 0.178157
6185.48 0.0812012
6186.65 0.0464984
6188.98 0.0213336
6191.32 0.0124535
6200.67 0.00398374
6219.37 0.00279911
6228.72 0.00393664
6238.07 0.00776762
6242.75 0.0132395
6245.08 0.0187363
6247.42 0.0287973
6249.76 0.0503198
6250.93 0.0717103
6252.10 0.110505
6252.68 0.143088
6253.26 0.192511
6253.85 0.273063
6254.43 0.416998
6254.73 0.536413
6255.02 0.714777
6255.31 0.999338
6255.60 1.49436
6255.89 2.47118
6256.04 3.36098
6256.19 4.82728
6256.33 7.48831
6256.41 9.70679
6256.48 13.0393
6256.55 18.3306
6256.62 27.3165
6256.70 43.7555
6256.77 75.2291
6256.84 120.376
6256.90 150.476
6256.97 120.373
6257.03 75.2271
6257.09 47.6307
6257.15 31.6219
6257.21 22.1341
6257.27 16.2176
6257.40 9.67072
6257.52 6.39522
6257.64 4.51629
6257.76 3.35375
6258.00 2.05805
6258.25 1.38686
6258.49 0.998322
6258.73 0.752667
6258.98 0.587617
6259.46 0.386295
6259.95 0.273353
6260.44 0.203487
6260.92 0.157455
6261.90 0.102270
6262.87 0.0718138
6264.82 0.0410656
6266.76 0.0266285
6268.71 0.0187230
6272.60 0.0108028
6280.39 0.00510464
6288.17 0.00311490
6303.74 0.00175729
6319.31 0.00142836
6334.89 0.00158339
6350.46 0.00253920
6358.24 0.00397289
6366.03 0.00807023
6369.92 0.0137577
6373.81 0.0298042
6375.76 0.0519668
6376.73 0.0739791
6377.71 0.113954
6378.68 0.198462
6379.17 0.281569
6379.65 0.430183
6379.90 0.553719
6380.14 0.738340
6380.38 1.03335
6380.62 1.54772
6380.87 2.57255
6380.99 3.51272
6381.11 5.05712
6381.23 7.90684
6381.29 10.3080
6381.35 13.8794
6381.42 19.7032
6381.48 29.7848
6381.54 48.7505
6381.60 86.0207
6381.65 137.909
6381.70 172.056
6381.75 137.906
6381.80 86.0191
6381.83 63.5032
6381.87 47.9026
6381.93 28.9233
6381.99 18.9883
6382.05 13.3077
6382.12 9.80246
6382.18 7.50327
6382.31 4.80098
6382.43 3.31803
6382.56 2.42711
6382.81 1.46068
6383.06 0.972616
6383.31 0.694555
6383.56 0.520693
6383.81 0.404825
6384.32 0.264668
6384.82 0.186682
6385.82 0.107245
6386.83 0.0696835
6387.83 0.0490494
6389.84 0.0283227
6393.87 0.0134192
6397.89 0.00829343
6405.93 0.00533112
6409.95 0.00657818
6411.96 0.0132757
6412.96 0.0393560
6413.47 0.136427
6413.72 0.470799
6413.84 1.47954
6413.91 3.85284
6413.94 7.62716
6413.95 11.8161
6413.97 19.0525
6413.98 30.2736
6414.00 38.0708
6414.02 30.2737
6414.03 19.0526
6414.05 12.5361
6414.06 8.68553
6414.08 4.70393
6414.14 1.91854
6414.24 0.634341
6414.46 0.186140
6414.88 0.0533118
6415.72 0.0170948
6417.42 0.00783430
6420.80 0.00636507
6424.18 0.00953574
6425.88 0.0211759
6426.72 0.0642249
6427.15 0.220859
6427.36 0.748661
6427.46 2.25949
6427.52 5.53025
6427.54 10.1912
6427.56 14.6825
6427.57 22.0387
6427.58 35.1691
6427.60 44.0707
6427.62 35.1692
6427.63 22.0388
6427.65 12.0005
6427.67 7.19940
6427.71 3.24050
6427.79 1.15996
6427.96 0.355871
6428.28 0.103384
6428.93 0.0328453
6430.22 0.0149374
6432.82 0.0126286
6438.00 0.0235755
6440.59 0.0404372
6441.89 0.0573404
6443.19 0.0881392
6444.48 0.153411
6445.13 0.217628
6445.78 0.332887
6446.10 0.428415
6446.43 0.571907
6446.75 0.801718
6447.07 1.20373
6447.40 2.00401
6447.56 2.73996
6447.72 3.96534
6447.88 6.22434
6447.97 8.13860
6448.05 11.0619
6448.13 15.8110
6448.21 24.1475
6448.29 40.1665
6448.33 53.8674
6448.37 72.9945
6448.44 116.800
6448.50 146.006
6448.57 116.797
6448.63 72.9926
6448.68 51.9111
6448.72 37.7801
6448.77 28.3159
6448.81 21.9524
6448.90 14.0730
6448.99 9.71041
6449.08 7.07587
6449.17 5.37386
6449.34 3.39150
6449.52 2.32950
6449.70 1.69682
6449.88 1.29029
6450.06 1.01388
6450.41 0.673127
6450.77 0.479149
6451.12 0.358375
6451.48 0.278136
6452.19 0.181418
6452.90 0.127724
6454.33 0.0732036
6455.75 0.0474614
6457.18 0.0333163
6460.03 0.0190842
6462.88 0.0124201
6465.72 0.00876832
6471.42 0.00509968
6482.82 0.00242882
6494.21 0.00146570
6517.01 0.000747527
6539.80 0.000479720
6585.38 0.000286391
6608.17 0.000310423
6619.57 0.000587352
6625.27 0.00175404
6628.12 0.00638544
6629.54 0.0243986
6630.25 0.0924324
6630.61 0.335044
6630.79 1.10854
6630.88 3.11692
6630.92 6.95536
6630.94 11.6577
6630.97 21.9257
6630.98 35.2038
6631.00 43.8516
6631.02 35.2039
6631.03 21.9258
6631.06 12.2793
6631.08 7.42062
6631.12 3.47068
6631.20 1.25310
6631.37 0.384038
6631.70 0.106728
6632.36 0.0282588
6633.68 0.00738352
6636.32 0.00199724
6641.60 0.000624217
6652.16 0.000268762
6673.28 0.000164082
6715.52 0.000116274
6800.00 8.01447E-05
6800.00 0.334349
7000.00 0.330612
8000.00 0.311932
9000.00 0.295481
10000.0 0.279030
15000.0 0.223650
20000.0 0.191060
30000.0 0.153285
40000.0 0.131294
50000.0 0.119271
60000.0 0.107247
70000.0 0.102162
80000.0 0.0970758
90000.0 0.0937169
100000 0.0903580
150000 0.0844772
200000 0.0752680
250000 0.0652390
300000 0.0552100
350000 0.0495745
377241 0.0465042
377241 0.0465042
400000 0.0439390
450000 0.0404077
500000 0.0368764
550000 0.0344106
600000 0.0319447
650000 0.0300988
700000 0.0282530
750000 0.0267639
800000 0.0252748
821087 0.0247561
821087 0.0247561
850000 0.0240450
900000 0.0228152
929099 0.0222334
929100 0.0222334
950000 0.0218156
955399 0.0217077
955399 0.0217077
1.00000E+06 0.0208160
1.10000E+06 0.0191117
1.18141E+06 0.0178964
1.18142E+06 0.0178964
1.20000E+06 0.0176190
1.22334E+06 0.0173474
1.22334E+06 0.0173474
1.22556E+06 0.0173215
1.22556E+06 0.0173215
1.30000E+06 0.0164549
1.32101E+06 0.0162103
1.32101E+06 0.0162103
1.40000E+06 0.0152909
1.41106E+06 0.0152095
1.41106E+06 0.0152095
1.48356E+06 0.0146758
1.48356E+06 0.0146758
1.50000E+06 0.0145548
1.58838E+06 0.0139043
1.58838E+06 0.0139043
1.60000E+06 0.0138187
1.65606E+06 0.0136584
1.65606E+06 0.0136584
1.70000E+06 0.0135327
1.73485E+06 0.0134330
1.73485E+06 0.0134330
1.80000E+06 0.0132467
1.90000E+06 0.0130789
1.90702E+06 0.0130671
1.90702E+06 0.0130671
1.91758E+06 0.0130493
1.91758E+06 0.0130493
1.95221E+06 0.0129912
1.95222E+06 0.0129912
2.00000E+06 0.0129110
2.05638E+06 0.0128622
2.05638E+06 0.0128622
2.10000E+06 0.0128244
2.11140E+06 0.0128145
2.11140E+06 0.0128145
2.14481E+06 0.0127856
2.14481E+06 0.0127856
2.15459E+06 0.0127771
2.15460E+06 0.0127771
2.16015E+06 0.0127723
2.16015E+06 0.0127723
2.16136E+06 0.0127713
2.16136E+06 0.0127713
2.20000E+06 0.0127378
2.21313E+06 0.0127264
2.21313E+06 0.0127264
2.29689E+06 0.0126539
2.29689E+06 0.0126539
2.30000E+06 0.0126512
2.40000E+06 0.0125646
2.50000E+06 0.0124780
2.60000E+06 0.0121340
2.70000E+06 0.0117900
2.80000E+06 0.0114460
2.90000E+06 0.0111020
3.00000E+06 0.0107580
3.10000E+06 0.0103472
3.20000E+06 0.00993629
3.50000E+06 0.00870373
4.00000E+06 0.00687840
4.48469E+06 0.00541434
4.48470E+06 0.00541434
4.50000E+06 0.00536811
4.66507E+06 0.00496823
4.66508E+06 0.00496822
5.00000E+06 0.00415690
5.50000E+06 0.00322589
6.00000E+06 0.00247720
6.50000E+06 0.00189445
7.00000E+06 0.00147550
7.50000E+06 0.00116706
8.00000E+06 0.000937140
8.46543E+06 0.000801940
8.46543E+06 0.000801940
8.50000E+06 0.000791898
8.67352E+06 0.000765163
8.67352E+06 0.000765163
8.84286E+06 0.000739071
8.84286E+06 0.000739071
8.89225E+06 0.000731462
8.89225E+06 0.000731462
8.89584E+06 0.000730908
8.89585E+06 0.000730908
9.00000E+06 0.000714860
9.03662E+06 0.000712201
9.03663E+06 0.000712201
9.50000E+06 0.000678553
1.00000E+07 0.000677700
1.05000E+07 0.000696955
1.07104E+07 0.000705059
1.10000E+07 0.000716210
1.15000E+07 0.000740755
1.20000E+07 0.000765300
1.25000E+07 0.000780185
1.30000E+07 0.000795070
1.30278E+07 0.000794983
1.30278E+07 0.000794983
1.35000E+07 0.000793495
1.40000E+07 0.000791920
1.45000E+07 0.000771730
1.50000E+07 0.000751540
1.51021E+07 0.000745080
1.51022E+07 0.000745077
1.55000E+07 0.000719905
1.60000E+07 0.000688270
1.65000E+07 0.000642306
1.65513E+07 0.000637586
1.70000E+07 0.000596341
1.75000E+07 0.000545271
1.80000E+07 0.000494200
1.85000E+07 0.000448623
1.87964E+07 0.000421609
1.90000E+07 0.000403046
1.95000E+07 0.000367453
2.00000E+07 0.000331860
2.10000E+07 0.000281329
2.20000E+07 0.000230798
2.30000E+07 0.000199089
2.40000E+07 0.000167379
2.44071E+07 0.000159667
2.50000E+07 0.000148435
2.60000E+07 0.000129490
2.70000E+07 0.000116775
2.80000E+07 0.000104060
2.90000E+07 9.52524E-05
3.00000E+07 8.64450E-05