Ba-137(n,g) ENDF/B-VII.1
Energy(eV) XS(b)
1.00000E-05 180.976
1.25000E-05 161.870
1.50000E-05 147.766
2.00000E-05 127.969
2.75000E-05 109.133
3.50000E-05 96.7357
4.25000E-05 87.7862
5.00000E-05 80.9348
6.25000E-05 72.3903
7.50000E-05 66.0830
0.000100000 57.2295
0.000125000 51.1876
0.000150000 46.7276
0.000200000 40.4673
0.000275000 34.5105
0.000350000 30.5903
0.000425000 27.7602
0.000500000 25.5936
0.000625000 22.8915
0.000750000 20.8969
0.00100000 18.0972
0.00125000 16.1865
0.00150000 14.7761
0.00200000 12.7963
0.00275000 10.9125
0.00350000 9.67274
0.00425000 8.77771
0.00500000 8.09250
0.00625000 7.23793
0.00750000 6.60709
0.0100000 5.72156
0.0125000 5.11720
0.0150000 4.67106
0.0200000 4.04476
0.0253000 3.59576
0.0314750 3.22331
0.0376500 2.94671
0.0500000 2.55625
0.0625000 2.28568
0.0750000 2.08589
0.100000 1.80532
0.125000 1.61374
0.150000 1.47224
0.200000 1.27343
0.275000 1.08400
0.350000 0.959098
0.500000 0.799506
0.750000 0.648831
1.00000 0.558504
1.50000 0.450542
2.00000 0.385526
2.75000 0.322958
3.50000 0.281251
5.00000 0.227244
7.50000 0.175312
10.0000 0.143694
15.0000 0.105593
20.0000 0.0827788
27.5000 0.0613920
35.0000 0.0478172
50.0000 0.0317204
62.5000 0.0239264
75.0000 0.0187518
100.000 0.0125485
113.440 0.0105843
120.160 0.0101868
123.520 0.0115307
124.360 0.0132131
125.200 0.0181490
125.620 0.0250650
125.830 0.0319740
126.040 0.0445658
126.250 0.0712917
126.355 0.0976325
126.460 0.145004
126.513 0.184341
126.565 0.243541
126.618 0.338592
126.670 0.505470
126.723 0.839573
126.749 1.14946
126.775 1.66690
126.802 2.63456
126.815 3.46051
126.828 4.73477
126.841 6.85579
126.854 10.6401
126.867 18.1622
126.874 24.7748
126.880 34.3492
126.890 54.9503
126.900 68.6839
126.910 54.9545
126.920 34.3544
126.929 21.9624
126.938 14.7500
126.946 10.4121
126.955 7.67694
126.973 4.60585
126.991 3.05553
127.009 2.16529
127.027 1.61523
127.062 0.995783
127.098 0.675362
127.134 0.488742
127.170 0.370703
127.205 0.291554
127.277 0.194812
127.348 0.140388
127.419 0.106775
127.491 0.0845972
127.633 0.0580026
127.776 0.0433019
128.062 0.0284358
128.347 0.0214361
128.633 0.0175863
129.203 0.0136996
130.345 0.0108275
131.487 0.00974665
136.055 0.00840237
145.190 0.00747345
163.460 0.00635841
200.000 0.00512273
254.485 0.00477697
281.727 0.00529106
308.969 0.00662205
336.211 0.00981647
349.832 0.0130976
363.454 0.0191362
370.264 0.0242460
377.075 0.0320735
383.885 0.0449545
390.696 0.0684215
394.101 0.0881871
397.506 0.118376
400.912 0.167884
404.317 0.257611
406.020 0.332775
407.722 0.446911
409.425 0.632553
410.276 0.772458
411.128 0.964818
411.979 1.23959
412.830 1.65142
413.682 2.30925
414.533 3.45589
414.959 4.37899
415.384 5.72634
415.810 7.80296
416.235 11.2392
416.661 17.5192
416.874 22.7909
417.087 30.7664
417.300 43.5630
417.512 65.5981
417.725 106.758
417.832 140.522
417.938 187.808
418.119 300.154
418.300 374.788
418.482 299.507
418.663 186.983
418.822 121.850
418.981 82.6943
419.140 58.8013
419.299 43.5837
419.616 26.3792
419.934 17.5471
420.252 12.4690
420.569 9.30005
421.205 5.72845
421.840 3.87357
422.476 2.79095
423.111 2.10508
423.747 1.64376
425.018 1.08123
426.288 0.764575
427.559 0.568988
428.830 0.439828
431.372 0.285308
433.914 0.199976
436.456 0.147971
438.997 0.113975
444.081 0.0737424
449.164 0.0517917
454.248 0.0385509
459.332 0.0299838
469.499 0.0200251
479.666 0.0148089
489.833 0.0119176
500.000 0.0103903
518.979 0.0101860
528.469 0.0116291
537.959 0.0150760
542.703 0.0182415
547.448 0.0232484
552.193 0.0316575
556.938 0.0471719
559.310 0.0603127
561.683 0.0804340
564.055 0.113481
566.427 0.173403
567.614 0.223575
568.800 0.299696
569.986 0.423304
571.172 0.643957
571.765 0.825870
572.358 1.09774
572.952 1.53016
573.545 2.27919
573.841 2.87842
574.138 3.74754
574.434 5.07600
574.731 7.24798
575.027 11.1469
575.176 14.3602
575.324 19.1281
575.472 26.5844
575.621 38.9686
575.769 60.9097
575.917 101.122
576.059 161.710
576.200 202.030
576.342 161.615
576.483 101.029
576.586 70.5529
576.690 50.5803
576.793 37.4690
576.897 28.6299
577.103 18.0590
577.310 12.3292
577.517 8.91805
577.724 6.73642
578.137 4.22031
578.551 2.88505
578.965 2.09453
579.378 1.58881
579.792 1.24612
580.619 0.825104
581.446 0.586295
582.273 0.437990
583.101 0.339662
584.755 0.221495
586.409 0.155928
588.064 0.115817
589.718 0.0895111
593.027 0.0582425
596.336 0.0410733
599.644 0.0306396
602.953 0.0238251
609.570 0.0157499
616.188 0.0113188
622.805 0.00861939
629.423 0.00684793
642.658 0.00472821
655.893 0.00354470
682.362 0.00231687
708.832 0.00171138
735.302 0.00136278
788.242 0.000996367
841.181 0.000829993
894.121 0.000770180
947.060 0.000813467
973.530 0.000911685
1000.00 0.00119458
1011.24 0.00152060
1022.48 0.00239109
1028.10 0.00356889
1033.72 0.00687419
1036.53 0.0114586
1037.94 0.0160475
1039.34 0.0244608
1040.75 0.0425329
1041.45 0.0606169
1042.15 0.0936391
1042.51 0.121619
1042.86 0.164338
1043.21 0.234527
1043.56 0.361987
1043.73 0.469258
1043.91 0.632521
1044.09 0.898756
1044.26 1.37317
1044.35 1.76800
1044.44 2.36107
1044.53 3.31091
1044.61 4.94702
1044.70 8.22493
1044.74 11.2325
1044.79 16.2273
1044.83 25.3976
1044.85 33.1339
1044.88 44.8920
1044.90 63.8612
1044.92 96.8011
1044.94 158.977
1044.96 275.078
1044.98 445.493
1045.00 551.399
1045.02 435.921
1045.04 275.074
1045.05 189.580
1045.06 137.661
1045.08 103.057
1045.09 79.4145
1045.12 49.9277
1045.14 34.4548
1045.17 24.8338
1045.20 18.8935
1045.25 11.9556
1045.30 8.17343
1045.35 5.93404
1045.41 4.50137
1045.46 3.54573
1045.57 2.34572
1045.67 1.67056
1045.78 1.24986
1045.88 0.970180
1046.09 0.632042
1046.30 0.444996
1046.51 0.329857
1046.72 0.254628
1047.14 0.164719
1047.57 0.115462
1048.41 0.0659756
1049.25 0.0428353
1050.09 0.0302132
1051.78 0.0176006
1055.15 0.00857413
1058.52 0.00544401
1065.26 0.00332782
1072.00 0.00281003
1078.74 0.00299913
1085.48 0.00428896
1088.85 0.00624122
1092.22 0.0118573
1093.90 0.0196829
1094.74 0.0275147
1095.59 0.0418191
1096.43 0.0724317
1096.85 0.102825
1097.27 0.158008
1097.48 0.204417
1097.69 0.274606
1097.90 0.389393
1098.11 0.593930
1098.22 0.764796
1098.32 1.01872
1098.43 1.42378
1098.53 2.12836
1098.64 3.53774
1098.69 4.83048
1098.74 6.92357
1098.80 10.8093
1098.82 14.0008
1098.85 18.7898
1098.88 26.7593
1098.90 39.9228
1098.93 64.0511
1098.95 110.339
1098.98 176.210
1099.00 219.981
1099.02 176.203
1099.05 110.336
1099.07 66.6387
1099.09 43.4612
1099.12 30.0574
1099.14 21.8399
1099.16 16.3247
1099.19 12.7572
1099.23 8.37405
1099.28 5.85979
1099.33 4.34942
1099.42 2.66341
1099.51 1.78843
1099.60 1.28707
1099.70 0.967550
1099.79 0.755706
1099.97 0.495633
1100.16 0.350697
1100.34 0.261314
1100.53 0.202340
1100.90 0.131690
1101.27 0.0928070
1102.01 0.0535697
1102.75 0.0351460
1103.49 0.0250739
1104.97 0.0149879
1107.93 0.00775495
1110.90 0.00524749
1116.82 0.00355055
1122.75 0.00309433
1134.60 0.00321358
1146.44 0.00412159
1158.29 0.00631658
1164.22 0.00854152
1170.14 0.0126148
1173.11 0.0160589
1176.07 0.0213353
1179.03 0.0300326
1181.99 0.0459042
1183.48 0.0593056
1184.96 0.0797907
1186.44 0.113432
1187.92 0.174500
1188.66 0.225749
1189.40 0.303531
1190.14 0.430309
1190.88 0.657089
1191.25 0.845245
1191.62 1.12670
1191.99 1.57630
1192.36 2.35990
1192.55 2.99457
1192.73 3.91695
1192.92 5.33805
1193.10 7.68950
1193.20 9.49800
1193.29 11.9835
1193.38 15.6101
1193.47 21.0339
1193.57 29.8206
1193.66 44.7685
1193.75 72.9423
1193.80 95.7657
1193.84 127.602
1193.92 203.767
1194.00 254.369
1194.08 202.709
1194.16 126.770
1194.23 80.9345
1194.30 54.3600
1194.38 38.2017
1194.45 28.1807
1194.59 16.9042
1194.74 11.1844
1194.88 7.92113
1195.03 5.89417
1195.32 3.62568
1195.61 2.44749
1195.90 1.76171
1196.19 1.32816
1196.48 1.03772
1197.06 0.682626
1197.64 0.483253
1198.22 0.360096
1198.79 0.278750
1199.95 0.181323
1201.11 0.127531
1202.27 0.0946911
1203.43 0.0732208
1205.75 0.0477528
1208.06 0.0338312
1210.38 0.0254093
1212.70 0.0199398
1217.33 0.0135294
1221.97 0.0100956
1231.24 0.00683432
1240.50 0.00555204
1249.77 0.00513281
1268.31 0.00577677
1277.58 0.00683445
1286.85 0.00865255
1296.12 0.0118043
1305.39 0.0176889
1310.02 0.0226925
1314.65 0.0303629
1319.29 0.0429747
1323.92 0.0658556
1326.24 0.0850326
1328.56 0.114131
1330.88 0.161410
1333.19 0.245875
1334.35 0.315603
1335.51 0.419798
1336.67 0.585852
1337.25 0.708364
1337.83 0.873668
1338.41 1.10465
1338.99 1.43975
1339.56 1.95272
1340.14 2.79387
1340.72 4.31289
1341.01 5.57118
1341.30 7.44131
1341.59 10.3925
1341.88 15.3192
1342.17 24.1923
1342.46 40.7068
1342.73 65.3767
1343.00 81.9143
1343.27 65.3441
1343.54 40.6754
1343.73 28.7661
1343.92 20.8787
1344.11 15.6179
1344.29 12.0244
1344.67 7.66643
1345.05 5.27083
1345.42 3.82810
1345.80 2.90216
1346.55 1.82712
1347.30 1.25237
1348.06 0.911212
1348.81 0.692300
1349.56 0.543614
1351.06 0.360429
1352.57 0.256361
1354.07 0.191587
1355.58 0.148618
1358.59 0.0969043
1361.60 0.0681767
1364.60 0.0505896
1367.61 0.0390490
1373.63 0.0253257
1379.65 0.0177919
1385.67 0.0132161
1391.69 0.0102307
1403.72 0.00670199
1415.76 0.00477688
1427.80 0.00361410
1439.83 0.00286014
1463.90 0.00198046
1487.98 0.00151703
1536.12 0.00111974
1584.27 0.00109652
1608.34 0.00123138
1632.41 0.00155331
1656.49 0.00231628
1668.52 0.00310269
1680.56 0.00455840
1686.58 0.00579649
1692.59 0.00769990
1698.61 0.0108445
1704.63 0.0165970
1707.64 0.0214566
1710.65 0.0288955
1713.66 0.0411233
1716.67 0.0633444
1718.17 0.0820047
1719.68 0.110373
1721.18 0.156640
1722.68 0.239619
1723.44 0.308498
1724.19 0.411856
1724.94 0.577419
1725.32 0.700369
1725.69 0.867140
1726.07 1.10199
1726.45 1.44538
1726.82 1.97718
1727.20 2.86361
1727.39 3.54601
1727.57 4.50057
1727.76 5.89024
1727.95 8.01638
1728.14 11.4794
1728.33 17.5816
1728.42 22.4544
1728.51 29.3755
1728.61 39.3710
1728.70 53.7424
1728.85 85.9654
1729.00 107.431
1729.15 85.9476
1729.30 53.7251
1729.43 34.7563
1729.56 23.5188
1729.70 16.6894
1729.83 12.3503
1730.09 7.44837
1730.36 4.95092
1730.62 3.51298
1730.89 2.62012
1731.41 1.61419
1731.94 1.09122
1732.47 0.786189
1733.00 0.593072
1733.53 0.463400
1734.59 0.304978
1735.64 0.215874
1736.70 0.160766
1737.76 0.124395
1739.87 0.0808267
1741.99 0.0567396
1744.10 0.0420411
1746.22 0.0324224
1750.45 0.0210067
1754.68 0.0147533
1758.91 0.0109616
1763.14 0.00849122
1771.60 0.00557402
1780.06 0.00398377
1788.52 0.00302267
1796.97 0.00239819
1813.89 0.00166361
1830.81 0.00126568
1864.65 0.000875433
1898.49 0.000704190
1932.33 0.000623150
2000.00 0.000584893
2087.92 0.000685834
2131.87 0.000811816
2175.83 0.00103024
2219.79 0.00143835
2241.77 0.00179136
2263.75 0.00235391
2285.73 0.00336397
2296.72 0.00423156
2307.71 0.00563200
2318.70 0.00824829
2324.19 0.0106160
2329.68 0.0146586
2335.18 0.0227807
2337.93 0.0305582
2340.67 0.0443713
2343.42 0.0730342
2344.80 0.100857
2346.17 0.150250
2346.86 0.190878
2347.54 0.251485
2348.23 0.347705
2348.92 0.513698
2349.26 0.646573
2349.60 0.838451
2349.95 1.13184
2350.29 1.60872
2350.63 2.46296
2350.81 3.16402
2350.98 4.19328
2351.15 5.79965
2351.32 8.42426
2351.49 13.0336
2351.66 21.2771
2351.83 34.0063
2352.00 42.4769
2352.17 33.9202
2352.34 21.2088
2352.44 15.6172
2352.55 11.7049
2352.76 7.05328
2352.97 4.62695
2353.18 3.24762
2353.39 2.39270
2353.60 1.83260
2354.02 1.17248
2354.44 0.813225
2354.86 0.597907
2355.69 0.363626
2356.53 0.245869
2357.37 0.178758
2358.21 0.136934
2359.05 0.109256
2360.73 0.0761746
2362.40 0.0582043
2365.76 0.0411592
2369.11 0.0348323
2372.47 0.0334192
2379.18 0.0397925
2382.53 0.0479187
2385.88 0.0612753
2389.24 0.0837115
2392.59 0.124189
2394.27 0.157563
2395.95 0.207196
2397.63 0.285518
2399.30 0.419446
2400.14 0.525209
2400.98 0.676463
2401.82 0.903785
2402.66 1.26598
2403.50 1.89307
2403.91 2.39022
2404.33 3.10172
2404.75 4.16349
2405.17 5.80961
2405.59 8.47124
2406.01 12.8283
2406.51 20.5646
2407.00 25.7349
2407.50 20.5538
2407.99 12.8179
2408.43 8.31947
2408.86 5.62972
2409.30 3.99529
2409.74 2.95886
2410.61 1.78885
2411.48 1.18957
2412.36 0.845556
2413.23 0.630975
2414.98 0.389295
2416.72 0.263803
2418.47 0.190604
2420.21 0.144230
2421.96 0.113024
2425.45 0.0749457
2428.95 0.0534991
2432.44 0.0402360
2435.93 0.0314729
2442.92 0.0209807
2449.90 0.0151907
2456.89 0.0116760
2463.87 0.00939892
2477.84 0.00677637
2491.81 0.00546376
2519.75 0.00461075
2547.69 0.00521834
2561.66 0.00618208
2575.63 0.00797201
2589.60 0.0115588
2596.58 0.0148846
2603.57 0.0205995
2610.55 0.0320622
2614.05 0.0429887
2617.54 0.0622840
2619.28 0.0781823
2621.03 0.102031
2622.78 0.140353
2624.52 0.208021
2625.40 0.263335
2626.27 0.345412
2627.14 0.474813
2628.01 0.696298
2628.45 0.871662
2628.89 1.12276
2629.32 1.50184
2629.76 2.10810
2630.20 3.16673
2630.42 4.01138
2630.63 5.22862
2630.85 7.06669
2631.07 9.94615
2631.29 14.6767
2631.51 22.5661
2631.75 36.0729
2632.00 45.0642
2632.25 36.0065
2632.50 22.5129
2632.70 15.0665
2632.90 10.4590
2633.10 7.56398
2633.30 5.67763
2633.71 3.49850
2634.11 2.35620
2634.52 1.68953
2634.92 1.27082
2635.73 0.794875
2636.54 0.545644
2637.35 0.399801
2638.96 0.245055
2640.58 0.169491
2642.20 0.127553
2645.43 0.0864101
2648.66 0.0695549
2651.90 0.0635525
2658.36 0.0699027
2661.60 0.0816602
2664.83 0.101661
2668.06 0.135264
2669.68 0.160483
2671.30 0.194615
2672.91 0.242197
2674.53 0.310963
2676.15 0.415177
2677.76 0.583159
2678.57 0.708435
2679.38 0.878131
2680.19 1.11546
2681.00 1.45974
2681.81 1.98199
2682.61 2.81174
2683.42 4.19613
2684.23 6.54998
2685.12 10.4872
2686.00 13.1127
2686.89 10.4781
2687.77 6.54096
2688.65 4.03772
2689.53 2.63255
2690.40 1.81990
2691.28 1.32200
2692.16 0.999109
2693.03 0.779917
2694.79 0.511381
2696.54 0.360246
2698.30 0.267299
2701.81 0.163865
2705.32 0.110760
2708.82 0.0799531
2712.33 0.0605037
2715.84 0.0474395
2722.86 0.0315110
2729.88 0.0225239
2736.90 0.0169500
2743.91 0.0132503
2757.95 0.00878726
2771.99 0.00629143
2786.02 0.00475080
2800.06 0.00373095
2828.13 0.00250314
2856.20 0.00181808
2884.27 0.00139678
2912.34 0.00112010
2968.49 0.000797722
3024.63 0.000652153
3052.70 0.000645053
3080.77 0.000751750
3094.81 0.000947274
3101.83 0.00115419
3108.85 0.00154222
3115.86 0.00238801
3119.37 0.00324009
3122.88 0.00480670
3124.64 0.00613633
3126.39 0.00817838
3128.15 0.0115540
3129.90 0.0177285
3130.78 0.0229542
3131.66 0.0309502
3132.53 0.0441024
3133.41 0.0680245
3134.29 0.118716
3134.73 0.168700
3135.16 0.258318
3135.60 0.445044
3135.82 0.624665
3136.04 0.939609
3136.26 1.57313
3136.37 2.16018
3136.48 3.13394
3136.53 3.89343
3136.59 4.96197
3136.64 6.52924
3136.70 8.89609
3136.75 12.8568
3136.78 15.9197
3136.81 19.9649
3136.84 25.8696
3136.86 34.0899
3136.89 46.1145
3136.92 64.0474
3136.96 102.723
3137.00 128.092
3137.04 102.721
3137.08 64.0448
3137.13 36.3750
3137.18 22.2365
3137.23 14.7148
3137.28 10.3676
3137.33 7.66535
3137.38 5.88348
3137.47 3.78185
3137.57 2.61945
3137.67 1.92463
3137.86 1.16024
3138.06 0.772974
3138.25 0.552322
3138.45 0.414204
3138.64 0.322085
3139.04 0.210518
3139.43 0.148433
3139.82 0.110285
3140.21 0.0851821
3140.99 0.0552216
3141.77 0.0387478
3142.55 0.0287095
3143.33 0.0221590
3144.89 0.0143940
3146.45 0.0101509
3148.01 0.00758049
3149.57 0.00590639
3152.70 0.00393005
3155.82 0.00285275
3158.94 0.00220103
3162.06 0.00177710
3168.31 0.00127685
3174.55 0.00100400
3187.04 0.000731827
3212.02 0.000541726
3237.00 0.000494179
3261.98 0.000521688
3274.47 0.000576042
3286.96 0.000689145
3299.45 0.000945346
3305.69 0.00120603
3311.94 0.00168656
3315.06 0.00209487
3318.18 0.00272262
3321.31 0.00376127
3324.43 0.00566530
3327.55 0.00975605
3329.11 0.0138435
3330.67 0.0213158
3332.23 0.0372821
3333.02 0.0531615
3333.80 0.0819624
3334.58 0.142931
3334.97 0.202736
3335.36 0.309855
3335.75 0.532153
3335.94 0.744931
3336.14 1.11600
3336.33 1.85115
3336.43 2.52805
3336.53 3.63728
3336.63 5.68726
3336.67 7.41462
3336.72 9.97078
3336.77 14.1514
3336.80 17.3148
3336.82 21.3848
3336.85 27.1936
3336.87 34.9814
3336.89 45.9266
3336.92 61.5903
3336.96 98.7822
3337.00 123.178
3337.04 98.7800
3337.08 61.5879
3337.11 45.3900
3337.13 33.8565
3337.19 20.2492
3337.24 13.2130
3337.29 9.28148
3337.34 6.81124
3337.39 5.19911
3337.50 3.31618
3337.60 2.28577
3337.70 1.67354
3337.91 1.00658
3338.12 0.669743
3338.32 0.478118
3338.53 0.357855
3338.74 0.278176
3339.15 0.181580
3339.56 0.127914
3339.98 0.0949798
3340.39 0.0733287
3341.22 0.0475137
3342.04 0.0333320
3342.87 0.0247058
3343.69 0.0190717
3345.35 0.0124022
3347.00 0.00876150
3348.65 0.00655825
3350.30 0.00512756
3353.61 0.00344729
3356.91 0.00254476
3360.22 0.00201557
3363.52 0.00169346
3370.14 0.00141734
3376.75 0.00161659
3383.36 0.00379544
3386.66 0.0129118
3388.31 0.0487174
3388.73 0.0849562
3389.14 0.185254
3389.35 0.320508
3389.55 0.681236
3389.66 1.15197
3389.76 2.32883
3389.81 3.74876
3389.84 4.99392
3389.86 6.86787
3389.89 10.1552
3389.92 16.3348
3389.93 21.5989
3389.94 29.5431
3389.95 41.8936
3389.97 59.5162
3389.98 95.1158
3390.00 119.037
3390.02 95.1153
3390.03 59.5160
3390.05 41.8937
3390.06 30.3092
3390.07 22.6132
3390.08 17.3745
3390.11 10.8583
3390.13 7.47120
3390.16 5.36797
3390.18 4.07787
3390.23 2.55312
3390.33 1.26628
3390.42 0.756682
3390.62 0.356558
3390.81 0.206705
3391.21 0.0947412
3391.60 0.0543477
3393.16 0.0143061
3396.28 0.00402192
3402.53 0.00138200
3415.02 0.000674750
3440.01 0.000468268
3464.99 0.000473120
3477.49 0.000676329
3483.73 0.00151797
3486.85 0.00486429
3488.42 0.0180363
3489.20 0.0690172
3489.59 0.259249
3489.69 0.444396
3489.78 0.922154
3489.83 1.52311
3489.88 2.96783
3489.91 4.63787
3489.93 7.95687
3489.94 11.0547
3489.95 16.1965
3489.97 25.2997
3489.98 42.1782
3489.99 68.4884
3490.00 84.2520
3490.01 68.4885
3490.02 42.1784
3490.03 27.4307
3490.04 18.6519
3490.05 12.8696
3490.06 9.58389
3490.09 5.71500
3490.11 3.76621
3490.15 1.97512
3490.19 1.20973
3490.27 0.586270
3490.36 0.344583
3490.53 0.160185
3490.69 0.0922609
3491.37 0.0241605
3492.71 0.00643273
3495.39 0.00191457
3500.77 0.000774627
3511.51 0.000491517
3533.00 0.000435520
3554.49 0.000465597
3565.23 0.000572769
3570.60 0.000967121
3573.29 0.00250622
3574.63 0.00850915
3575.30 0.0313658
3575.64 0.114589
3575.81 0.390330
3575.89 1.15537
3575.93 2.73159
3575.95 4.90863
3575.97 9.71850
3575.99 15.5273
3576.00 19.4370
3576.01 15.5273
3576.03 9.71851
3576.05 5.06475
3576.07 2.94706
3576.10 1.30532
3576.18 0.451544
3576.33 0.135139
3576.64 0.0373250
3577.25 0.0101053
3578.48 0.00292483
3580.93 0.00108582
3585.82 0.000626196
3595.62 0.000524967
3615.21 0.000535738
3654.40 0.000647973
3693.59 0.000850758
3732.77 0.00122708
3752.37 0.00154491
3771.96 0.00202955
3791.55 0.00282088
3811.15 0.00424406
3820.94 0.00542618
3830.74 0.00720595
3840.54 0.0100660
3850.33 0.0150943
3855.23 0.0191785
3860.13 0.0251917
3865.03 0.0345659
3869.93 0.0503414
3874.83 0.0799160
3877.28 0.105415
3879.72 0.145061
3882.17 0.211128
3884.62 0.331570
3885.85 0.431121
3887.07 0.576971
3888.30 0.796128
3889.52 1.12477
3891.26 1.79763
3893.00 2.24459
3894.74 1.79556
3896.48 1.12277
3897.96 0.740588
3899.44 0.507289
3900.93 0.363159
3902.41 0.270466
3905.37 0.164783
3908.34 0.110078
3911.30 0.0784688
3914.26 0.0586660
3920.19 0.0362760
3926.12 0.0246112
3932.05 0.0177887
3937.98 0.0134615
3943.90 0.0105483
3955.76 0.00699269
3967.61 0.00499030
3979.47 0.00375346
3991.32 0.00293732
4015.04 0.00196324
4038.75 0.00142918
4062.46 0.00110863
4086.17 0.000905502
4133.59 0.000693328
4181.01 0.000665814
4204.72 0.000767354
4216.58 0.000893959
4228.43 0.00114241
4240.29 0.00169566
4246.22 0.00225696
4252.14 0.00329128
4255.11 0.00416977
4258.07 0.00552019
4261.04 0.00775143
4264.00 0.0118327
4265.48 0.0152826
4266.96 0.0205650
4268.44 0.0292510
4269.93 0.0450418
4271.41 0.0784751
4272.15 0.111364
4272.89 0.170406
4273.63 0.292908
4274.00 0.410972
4274.37 0.617096
4274.74 1.02915
4274.93 1.40767
4275.11 2.03844
4275.21 2.52695
4275.30 3.20271
4275.39 4.19707
4275.48 5.70108
4275.58 8.17646
4275.67 12.4850
4275.72 16.0006
4275.76 20.8900
4275.81 27.9251
4275.85 37.9962
4275.93 60.8335
4276.00 75.7327
4276.07 60.5029
4276.15 37.7372
4276.21 25.1786
4276.27 17.5060
4276.33 12.6103
4276.39 9.47695
4276.51 5.82460
4276.63 3.92381
4276.75 2.80577
4276.87 2.10674
4277.11 1.30731
4277.35 0.888417
4277.60 0.642415
4277.84 0.485920
4278.08 0.380300
4278.56 0.251072
4279.04 0.178060
4279.52 0.132836
4280.01 0.102906
4280.97 0.0670045
4281.93 0.0471169
4282.90 0.0349639
4283.86 0.0269990
4285.79 0.0175365
4287.72 0.0123494
4289.65 0.00920073
4291.57 0.00714711
4295.43 0.00471956
4299.29 0.00339472
4303.14 0.00259308
4307.00 0.00207146
4314.71 0.00145644
4322.43 0.00112180
4337.85 0.000789881
4353.28 0.000639051
4368.70 0.000561437
4399.55 0.000500956
4430.40 0.000506405
4461.25 0.000573277
4476.68 0.000648464
4492.11 0.000796299
4507.53 0.00126872
4515.24 0.00266349
4519.10 0.00777505
4521.03 0.0274278
4521.51 0.0472265
4521.99 0.101808
4522.23 0.174809
4522.47 0.369125
4522.60 0.618997
4522.72 1.23453
4522.78 1.97005
4522.84 3.56228
4522.87 5.16632
4522.90 8.06841
4522.93 13.9152
4522.94 19.0815
4522.96 27.0920
4522.98 43.1484
4523.00 54.1855
4523.02 43.1481
4523.04 27.0919
4523.07 16.7608
4523.09 11.0390
4523.11 7.56386
4523.13 5.53293
4523.17 3.25827
4523.22 2.13182
4523.30 1.10958
4523.39 0.677153
4523.56 0.327278
4523.73 0.192870
4524.42 0.0522639
4525.79 0.0144052
4528.53 0.00465929
4534.02 0.00239509
4539.51 0.00227845
4545.00 0.00265671
4550.49 0.00349325
4555.98 0.00522056
4558.73 0.00687698
4561.47 0.0100509
4562.85 0.0132661
4564.22 0.0204679
4564.90 0.0291950
4565.59 0.0519996
4565.93 0.0821364
4566.28 0.163494
4566.45 0.271038
4566.62 0.550227
4566.70 0.901179
4566.79 1.74825
4566.83 2.70595
4566.88 4.70655
4566.90 6.67333
4566.92 9.86486
4566.94 15.6327
4566.96 27.0990
4566.98 43.4640
4567.00 54.2323
4567.02 43.4639
4567.04 27.0991
4567.05 19.9749
4567.06 15.2681
4567.08 9.47823
4567.11 6.34266
4567.13 4.50637
4567.17 2.55992
4567.22 1.65728
4567.31 0.851956
4567.39 0.522881
4567.57 0.257972
4567.75 0.158127
4568.46 0.0568474
4569.88 0.0356073
4571.29 0.0405360
4572.71 0.0564360
4574.13 0.0907317
4574.84 0.122556
4575.55 0.175372
4576.26 0.271807
4576.61 0.352731
4576.97 0.474476
4577.32 0.669467
4577.68 1.00234
4578.03 1.62028
4578.38 2.81872
4578.69 4.51034
4579.00 5.63787
4579.31 4.50331
4579.62 2.81331
4579.85 1.92885
4580.09 1.36265
4580.33 0.998358
4580.57 0.756593
4581.04 0.472065
4581.51 0.320451
4581.99 0.230856
4582.46 0.173954
4583.41 0.108807
4584.36 0.0743933
4585.30 0.0541117
4586.25 0.0411518
4587.20 0.0323915
4589.09 0.0216357
4590.99 0.0155403
4592.88 0.0117563
4594.78 0.00924901
4598.57 0.00623586
4602.36 0.00456675
4609.94 0.00288682
4617.52 0.00211304
4625.09 0.00170931
4640.25 0.00137932
4655.41 0.00139163
4670.57 0.00184601
4678.15 0.00256425
4685.73 0.00463965
4689.52 0.00753106
4693.31 0.0157001
4695.21 0.0269717
4696.15 0.0381690
4697.10 0.0584585
4698.05 0.101316
4698.52 0.143329
4699.00 0.218239
4699.23 0.280177
4699.47 0.372856
4699.71 0.520511
4699.94 0.775395
4700.18 1.27795
4700.30 1.73619
4700.42 2.48144
4700.54 3.83647
4700.59 4.94924
4700.65 6.60584
4700.71 9.20401
4700.77 13.5402
4700.83 21.2764
4700.89 35.6346
4700.95 57.1970
4701.00 71.2615
4701.06 57.1951
4701.11 35.6333
4701.18 20.2554
4701.24 12.3704
4701.31 8.18054
4701.37 5.76116
4701.44 4.25822
4701.51 3.26767
4701.64 2.09770
4701.77 1.45308
4701.90 1.06465
4702.16 0.642116
4702.43 0.428250
4702.69 0.306193
4702.95 0.229797
4703.22 0.178846
4703.74 0.117171
4704.27 0.0827727
4705.32 0.0477889
4706.38 0.0312301
4707.43 0.0221248
4709.54 0.0129621
4713.75 0.00634053
4717.97 0.00401024
4726.39 0.00236144
4734.82 0.00181467
4751.68 0.00151146
4768.53 0.00153283
4785.39 0.00170839
4802.24 0.00206371
4819.10 0.00304897
4827.53 0.00576906
4831.74 0.0157046
4833.85 0.0540204
4834.38 0.0927450
4834.90 0.199538
4835.17 0.343468
4835.43 0.727290
4835.56 1.22333
4835.63 1.68677
4835.69 2.45616
4835.76 3.92608
4835.79 5.20364
4835.82 7.20596
4835.86 10.5801
4835.89 16.8323
4835.91 22.2736
4835.92 29.8897
4835.94 41.3747
4835.96 58.7009
4835.98 94.7554
4836.00 117.404
4836.02 93.0851
4836.05 58.7005
4836.06 40.5076
4836.08 29.3185
4836.10 21.5159
4836.11 16.5732
4836.14 10.4469
4836.18 7.20618
4836.21 5.20384
4836.24 3.92627
4836.31 2.47200
4836.37 1.68692
4836.44 1.22899
4836.57 0.735043
4836.83 0.346872
4837.09 0.202197
4837.61 0.0940191
4838.14 0.0548844
4839.18 0.0263523
4840.23 0.0162333
4844.41 0.00648523
4852.78 0.00442133
4869.51 0.00511032
4886.24 0.00746609
4894.60 0.0103214
4898.79 0.0159802
4900.88 0.0344543
4901.92 0.103691
4902.19 0.172923
4902.45 0.360929
4902.58 0.609861
4902.71 1.25179
4902.77 2.06277
4902.84 3.96866
4902.87 6.12609
4902.90 10.3851
4902.92 14.6181
4902.94 21.2557
4902.95 32.8686
4902.97 55.3146
4902.98 87.5647
4903.00 110.570
4903.02 87.5645
4903.03 55.3146
4903.05 35.9252
4903.06 24.8405
4903.07 17.5026
4903.09 13.1486
4903.11 7.97957
4903.14 5.31884
4903.19 2.82948
4903.25 1.76318
4903.35 0.869177
4903.46 0.518206
4903.68 0.247467
4903.89 0.147761
4904.75 0.0472826
4906.46 0.0216616
4909.89 0.0165580
4916.74 0.0192410
4923.60 0.0257403
4930.46 0.0370496
4937.31 0.0582559
4940.74 0.0764394
4944.17 0.104518
4947.60 0.150837
4951.02 0.233999
4952.74 0.301655
4954.45 0.399432
4956.17 0.543646
4957.88 0.755859
4960.44 1.20882
4963.00 1.51003
4965.56 1.20723
4968.12 0.754364
4970.11 0.514974
4972.11 0.362607
4974.10 0.264987
4976.09 0.200484
4980.08 0.124869
4984.06 0.0847061
4988.05 0.0611382
4992.03 0.0462465
5000.00 0.0293974
5009.72 0.0197031
5019.43 0.0161824
5024.29 0.0171790
5029.15 0.0237731
5031.58 0.0342776
5032.79 0.0450446
5034.01 0.0648154
5035.22 0.106914
5035.83 0.148301
5036.44 0.222434
5037.04 0.375870
5037.35 0.522817
5037.65 0.777549
5037.95 1.28180
5038.11 1.74146
5038.26 2.49296
5038.41 3.86390
5038.49 5.00703
5038.56 6.72439
5038.64 9.45152
5038.71 14.0832
5038.75 17.6508
5038.79 22.5554
5038.83 29.3690
5038.86 38.6193
5038.93 61.6949
5039.00 77.2298
5039.07 61.6932
5039.14 38.6175
5039.20 24.8069
5039.26 16.7016
5039.32 11.7474
5039.38 8.67717
5039.50 5.21204
5039.63 3.45227
5039.75 2.44759
5039.87 1.82328
5040.12 1.12459
5040.36 0.761284
5040.61 0.549769
5040.86 0.416017
5041.10 0.326441
5041.59 0.216805
5042.08 0.155223
5042.58 0.117083
5043.07 0.0919214
5044.05 0.0617139
5045.03 0.0449566
5046.02 0.0346818
5047.00 0.0279132
5048.97 0.0197904
5050.93 0.0152440
5054.86 0.0105019
5058.80 0.00811906
5062.73 0.00669520
5070.59 0.00505493
5086.32 0.00348847
5102.05 0.00270556
5117.77 0.00226107
5133.50 0.00207083
5141.36 0.00213290
5149.23 0.00254208
5157.09 0.00514159
5161.02 0.0156344
5162.99 0.0566062
5163.48 0.0980422
5163.97 0.212150
5164.22 0.365214
5164.46 0.770811
5164.59 1.29109
5164.65 1.77888
5164.71 2.58581
5164.77 4.12256
5164.80 5.45222
5164.83 7.44200
5164.86 10.8478
5164.89 16.7859
5164.91 21.9846
5164.93 29.0970
5164.94 39.5718
5164.96 54.9609
5164.98 88.7188
5165.00 109.925
5165.02 87.1549
5165.05 54.9606
5165.07 32.8016
5165.09 20.8540
5165.12 14.1659
5165.14 10.1622
5165.17 7.61109
5165.19 5.89831
5165.24 3.82634
5165.29 2.67519
5165.33 1.97280
5165.43 1.19781
5165.62 0.575717
5165.81 0.338105
5166.20 0.157200
5166.58 0.0908647
5167.35 0.0420067
5168.11 0.0245346
5171.18 0.00736848
5177.31 0.00300331
5189.57 0.00196718
5201.83 0.00195065
5214.09 0.00230370
5226.35 0.00326467
5232.49 0.00427110
5238.62 0.00612464
5241.68 0.00768535
5244.75 0.0100552
5247.81 0.0139015
5250.88 0.0207424
5252.41 0.0263598
5253.94 0.0347160
5255.48 0.0479196
5257.01 0.0705453
5258.54 0.114217
5259.31 0.153010
5260.07 0.215258
5260.84 0.324025
5261.61 0.536624
5261.99 0.725627
5262.37 1.02362
5262.76 1.51503
5263.14 2.33863
5263.57 3.74451
5264.00 4.68238
5264.43 3.74338
5264.86 2.33789
5265.24 1.52627
5265.61 1.03839
5265.99 0.739217
5266.36 0.548772
5267.12 0.332862
5267.87 0.221963
5268.62 0.158044
5269.37 0.118114
5270.87 0.0730966
5272.37 0.0496792
5273.87 0.0360062
5275.37 0.0273322
5276.87 0.0214964
5279.88 0.0143701
5282.88 0.0103524
5285.88 0.00786675
5288.89 0.00622274
5294.89 0.00425216
5300.90 0.00316265
5312.91 0.00207480
5324.92 0.00161131
5336.93 0.00151727
5348.94 0.00243630
5354.95 0.00675023
5357.95 0.0239518
5358.70 0.0415131
5359.45 0.0904829
5359.83 0.157252
5360.21 0.339027
5360.39 0.579636
5360.58 1.20264
5360.67 1.98082
5360.72 2.68577
5360.77 3.84040
5360.82 5.91634
5360.86 10.1788
5360.89 14.2769
5360.91 20.8083
5360.93 32.2529
5360.96 52.9510
5360.98 85.4746
5361.00 105.905
5361.02 83.9679
5361.05 52.9507
5361.06 35.7774
5361.08 25.4540
5361.10 18.7557
5361.11 14.2770
5361.15 8.96244
5361.18 6.10180
5361.22 4.36707
5361.25 3.29865
5361.32 2.06706
5361.46 1.02220
5361.59 0.609222
5361.87 0.286019
5362.14 0.165883
5362.69 0.0762207
5363.23 0.0438563
5365.42 0.0117937
5369.79 0.00355047
5378.54 0.00142090
5396.03 0.000824779
5431.01 0.000619466
5465.99 0.000604296
5483.48 0.000756556
5492.22 0.00139370
5496.60 0.00392434
5498.78 0.0138789
5499.88 0.0523982
5500.42 0.196915
5500.56 0.337558
5500.70 0.702829
5500.77 1.16785
5500.83 2.27462
5500.87 3.51960
5500.90 6.10337
5500.92 8.55280
5500.94 12.6887
5500.95 20.1966
5500.97 34.7845
5500.99 56.1619
5501.00 69.5696
5501.02 56.1618
5501.03 34.7845
5501.05 22.0955
5501.06 14.4346
5501.09 7.39791
5501.12 4.41091
5501.15 2.90797
5501.21 1.51206
5501.26 0.928756
5501.38 0.449323
5501.50 0.264987
5501.96 0.0710342
5502.90 0.0187638
5504.76 0.00517562
5508.50 0.00171573
5515.96 0.000846572
5530.90 0.000641616
5560.77 0.000637371
5620.50 0.000858522
5650.37 0.00110887
5680.23 0.00158137
5695.17 0.00199239
5710.10 0.00265229
5725.03 0.00393464
5732.50 0.00571250
5736.23 0.0100323
5738.10 0.0251840
5739.03 0.0823096
5739.50 0.292718
5739.62 0.494166
5739.73 1.00574
5739.79 1.64166
5739.85 3.09503
5739.88 4.65564
5739.91 7.70723
5739.94 14.6994
5739.95 22.0864
5739.97 34.4225
5739.98 55.2777
5740.00 68.8407
5740.02 55.2776
5740.03 34.4225
5740.04 24.1098
5740.06 17.1887
5740.08 9.65365
5740.10 6.06107
5740.13 4.12638
5740.18 2.24848
5740.22 1.42010
5740.32 0.708596
5740.41 0.424178
5740.79 0.119512
5741.56 0.0356298
5743.08 0.0138563
5746.12 0.00896239
5752.21 0.00962114
5758.31 0.0126645
5764.40 0.0183031
5770.49 0.0296022
5773.53 0.0400187
5776.58 0.0574301
5779.62 0.0898266
5781.15 0.117581
5782.67 0.160445
5784.19 0.231348
5785.72 0.359152
5786.48 0.463646
5787.24 0.615065
5788.00 0.839423
5788.76 1.17120
5789.88 1.86977
5791.00 2.33414
5792.12 1.86906
5793.24 1.17076
5794.12 0.799104
5794.99 0.563041
5795.87 0.412079
5796.75 0.312406
5798.50 0.195751
5800.25 0.133991
5802.00 0.0978416
5803.76 0.0751023
5807.26 0.0495373
5810.77 0.0367164
5814.27 0.0299393
5821.28 0.0257047
5828.29 0.0309181
5835.30 0.0546757
5838.80 0.0887639
5840.56 0.122041
5842.31 0.180603
5844.06 0.297869
5844.94 0.406057
5845.81 0.586765
5846.69 0.921368
5847.13 1.20616
5847.57 1.64300
5848.00 2.35704
5848.44 3.62173
5848.66 4.63673
5848.88 6.08512
5849.10 8.18859
5849.32 11.2313
5849.66 17.9697
5850.00 22.4399
5850.34 17.9461
5850.68 11.2123
5850.99 7.20539
5851.30 4.83836
5851.61 3.41467
5851.92 2.51947
5852.54 1.51574
5853.16 1.00518
5853.78 0.713368
5854.40 0.531881
5855.64 0.328018
5856.88 0.222452
5858.11 0.160909
5859.35 0.121944
5860.59 0.0957275
5863.07 0.0637311
5865.54 0.0456757
5868.02 0.0344843
5870.49 0.0270619
5875.45 0.0181162
5880.40 0.0131190
5885.35 0.0100345
5890.30 0.00799212
5900.21 0.00553488
5910.11 0.00417400
5929.92 0.00285856
5949.73 0.00246924
5959.63 0.00256958
5969.54 0.00299380
5979.44 0.00413221
5984.40 0.00533417
5989.35 0.00755183
5991.82 0.00941672
5994.30 0.0122407
5996.78 0.0168015
5999.25 0.0248573
6001.73 0.0411104
6002.97 0.0562639
6004.20 0.0818704
6005.44 0.130149
6006.06 0.172034
6006.68 0.237566
6007.30 0.347739
6007.92 0.551285
6008.23 0.722076
6008.54 0.974973
6008.85 1.36226
6009.16 1.95273
6009.58 3.12625
6010.00 3.90913
6010.42 3.12544
6010.84 1.95220
6011.13 1.40271
6011.41 1.03088
6011.97 0.604145
6012.54 0.389485
6013.10 0.269860
6013.67 0.197210
6014.23 0.150236
6015.36 0.0953625
6016.49 0.0658650
6017.62 0.0482817
6019.87 0.0292716
6022.13 0.0197885
6024.39 0.0144063
6026.64 0.0110824
6028.90 0.00891490
6033.41 0.00651224
6037.93 0.00590246
6042.44 0.00984669
6044.70 0.0286057
6045.83 0.101365
6046.11 0.173396
6046.39 0.366895
6046.53 0.617043
6046.67 1.24906
6046.74 2.01266
6046.81 3.71082
6046.85 5.53973
6046.89 8.90739
6046.90 11.8793
6046.92 16.1212
6046.94 23.1411
6046.96 33.5338
6046.98 54.1294
6047.00 67.0670
6047.02 53.1753
6047.05 33.5336
6047.07 20.0143
6047.09 12.9494
6047.12 8.90745
6047.14 6.44806
6047.19 3.74882
6047.23 2.45452
6047.32 1.27179
6047.42 0.778283
6047.60 0.375263
6047.79 0.221147
6048.16 0.103684
6048.53 0.0605648
6050.01 0.0173490
6052.98 0.00594008
6058.91 0.00273422
6070.78 0.00157340
6082.64 0.00118587
6094.51 0.000978166
6118.24 0.000758181
6141.97 0.000647629
6189.43 0.000557413
6236.89 0.000562318
6284.36 0.000669664
6308.09 0.000797341
6331.82 0.00103859
6355.55 0.00155606
6367.41 0.00206644
6379.28 0.00298311
6385.21 0.00374350
6391.15 0.00488678
6397.08 0.00672056
6403.01 0.00993550
6408.94 0.0163625
6411.91 0.0222987
6414.88 0.0322312
6417.84 0.0506897
6419.33 0.0664527
6420.81 0.0907222
6422.29 0.130605
6423.77 0.201814
6425.26 0.342268
6426.00 0.463811
6426.74 0.641282
6427.87 1.02777
6429.00 1.28584
6430.13 1.02710
6431.26 0.640842
6432.06 0.451332
6432.87 0.326056
6433.67 0.242954
6434.47 0.186578
6436.08 0.118565
6437.69 0.0814032
6439.30 0.0591600
6440.90 0.0448797
6444.12 0.0283482
6447.33 0.0195435
6450.54 0.0143185
6456.97 0.00869937
6463.40 0.00590676
6469.83 0.00432244
6482.68 0.00268940
6495.54 0.00191316
6508.40 0.00148951
6534.11 0.00108148
6559.82 0.000922954
6585.53 0.000892188
6611.24 0.00107975
6624.10 0.00187305
6630.53 0.00497828
6633.74 0.0171643
6635.35 0.0643486
6635.75 0.111739
6636.15 0.241045
6636.35 0.412637
6636.55 0.862856
6636.66 1.43177
6636.76 2.79237
6636.81 4.32581
6636.86 7.51562
6636.88 10.5467
6636.91 15.6766
6636.93 25.0144
6636.96 42.7715
6636.98 69.0421
6637.00 85.5445
6637.02 67.8252
6637.05 42.7713
6637.07 25.5268
6637.09 16.2289
6637.12 11.0240
6637.14 7.90818
6637.19 4.58991
6637.24 2.97743
6637.33 1.53495
6637.43 0.936135
6637.62 0.450577
6637.81 0.264075
6638.19 0.122611
6638.57 0.0707331
6640.10 0.0188609
6643.16 0.00544842
6649.28 0.00205991
6661.51 0.00130054
6673.74 0.00156985
6679.85 0.00311958
6682.91 0.00928511
6684.44 0.0333038
6685.20 0.124201
6685.58 0.449799
6685.68 0.753506
6685.77 1.49655
6685.82 2.37099
6685.87 4.28241
6685.89 6.20232
6685.92 9.66025
6685.94 16.5618
6685.96 30.6466
6685.98 48.9798
6686.00 61.2932
6686.02 48.9797
6686.04 30.6465
6686.05 18.7871
6686.07 11.9373
6686.11 5.80506
6686.15 3.36385
6686.19 2.20230
6686.26 1.13909
6686.34 0.692832
6686.64 0.195096
6687.24 0.0525347
6688.44 0.0142923
6690.85 0.00440339
6695.66 0.00189893
6705.28 0.00129684
6724.53 0.00123320
6763.02 0.00150240
6801.51 0.00203021
6840.00 0.00300839
6859.24 0.00382666
6878.49 0.00506091
6897.73 0.00704532
6916.98 0.0105326
6936.23 0.0175227
6945.85 0.0239986
6955.47 0.0348684
6960.28 0.0432971
6965.09 0.0551640
6969.90 0.0725914
6974.72 0.0995730
6979.53 0.144277
6981.93 0.178280
6984.34 0.225027
6986.74 0.291150
6989.15 0.387233
6991.56 0.530028
6993.96 0.741722
6997.48 1.18580
7001.00 1.48088
7004.52 1.18426
7008.04 0.740240
7010.76 0.506932
7013.47 0.357766
7016.19 0.261883
7018.91 0.198306
7024.34 0.123563
7029.77 0.0837196
7035.20 0.0602567
7040.63 0.0453716
7051.50 0.0283440
7062.36 0.0194061
7073.23 0.0142470
7084.09 0.0115993
7086.81 0.0116989
7089.52 0.0132391
7092.24 0.0240169
7093.60 0.0673204
7094.28 0.228408
7094.45 0.383054
7094.62 0.782661
7094.70 1.27430
7094.79 2.42861
7094.83 3.71011
7094.87 6.20891
7094.89 8.46331
7094.91 12.0722
7094.93 18.1468
7094.96 28.5868
7094.98 46.1401
7095.00 57.1666
7095.02 45.3270
7095.05 28.5867
7095.06 21.0293
7095.07 15.7468
7095.10 9.63333
7095.13 6.38381
7095.15 4.50467
7095.21 2.56391
7095.26 1.64609
7095.37 0.836981
7095.48 0.508298
7095.70 0.246160
7095.91 0.147004
7096.78 0.0445877
7098.51 0.0171371
7101.98 0.00962042
7105.45 0.00784056
7108.92 0.00695760
7122.78 0.00517102
7150.52 0.00341067
7178.26 0.00245460
7206.00 0.00186884
7261.48 0.00123931
7289.22 0.00115553
7303.09 0.00151340
7310.02 0.00320320
7313.49 0.00997943
7315.22 0.0363501
7316.09 0.135763
7316.31 0.232900
7316.52 0.487726
7316.63 0.813004
7316.74 1.60077
7316.79 2.50181
7316.85 4.41338
7316.87 6.27025
7316.90 9.49087
7316.93 15.5689
7316.96 27.7123
7316.98 44.7330
7317.00 55.4250
7317.02 43.9446
7317.05 27.7121
7317.07 17.9576
7317.09 12.1338
7317.12 6.45045
7317.16 3.88142
7317.20 2.59673
7317.28 1.37710
7317.36 0.853521
7317.52 0.417598
7317.67 0.246828
7318.30 0.0668912
7319.56 0.0179794
7322.08 0.00520507
7327.11 0.00192582
7337.17 0.00106440
7357.28 0.000791898
7397.52 0.000642182
7478.00 0.000524342
7558.48 0.000512944
7598.72 0.000589771
7618.84 0.000824713
7628.90 0.00164943
7633.93 0.00480086
7636.44 0.0170557
7637.70 0.0639921
7638.33 0.236940
7638.48 0.401347
7638.64 0.821836
7638.72 1.33727
7638.80 2.51058
7638.84 3.80333
7638.88 6.26731
7638.92 11.8384
7638.94 17.5631
7638.96 26.5440
7638.98 42.8473
7639.00 53.0885
7639.02 42.0921
7639.05 26.5439
7639.07 16.1684
7639.09 10.6179
7639.14 5.30926
7639.18 3.12338
7639.22 2.06001
7639.31 1.06904
7639.40 0.654440
7639.58 0.316168
7639.76 0.185669
7640.48 0.0499297
7641.91 0.0134198
7644.77 0.00400610
7650.50 0.00187309
7656.23 0.00287739
7659.09 0.00845940
7660.52 0.0303142
7661.24 0.111752
7661.60 0.393792
7661.69 0.647930
7661.78 1.24331
7661.87 3.21911
7661.91 6.46627
7661.93 9.87277
7661.96 15.8790
7661.98 25.6316
7662.00 31.7579
7662.02 25.1799
7662.05 15.8789
7662.06 10.7292
7662.08 7.49042
7662.12 4.09306
7662.19 1.70445
7662.26 0.917544
7662.33 0.573687
7662.62 0.167745
7663.19 0.0459062
7664.34 0.0125030
7666.64 0.00374201
7671.23 0.00148113
7680.41 0.000901829
7698.78 0.000796011
7735.51 0.000978041
7753.87 0.00118475
7772.24 0.00154283
7790.60 0.00231450
7799.79 0.00350504
7804.38 0.00652134
7806.67 0.0171870
7807.82 0.0577605
7808.39 0.209393
7808.68 0.741335
7808.75 1.22580
7808.82 2.37158
7808.86 3.67522
7808.90 6.38980
7808.93 13.3402
7808.95 21.2850
7808.97 35.6566
7808.98 57.4219
7809.00 71.2170
7809.02 57.4218
7809.03 35.6566
7809.04 25.2840
7809.06 18.0636
7809.08 10.3887
7809.10 6.61929
7809.13 4.54979
7809.17 2.50724
7809.22 1.57925
7809.31 0.789437
7809.40 0.472282
7809.77 0.131291
7810.51 0.0370231
7811.98 0.0123529
7814.93 0.00642843
7820.83 0.00605625
7826.73 0.00776804
7832.63 0.0112674
7835.58 0.0142357
7838.53 0.0187390
7841.48 0.0260379
7844.43 0.0390130
7847.38 0.0655542
7848.85 0.0907016
7850.32 0.133953
7851.06 0.168378
7851.80 0.217961
7852.54 0.293101
7853.27 0.414581
7853.64 0.505491
7854.01 0.629237
7854.38 0.803174
7854.75 1.05635
7855.12 1.44403
7855.49 2.06578
7855.85 3.12181
7856.22 4.94558
7856.61 7.90875
7857.00 9.88243
7857.39 7.89965
7857.78 4.93830
7858.23 2.84043
7858.67 1.76169
7859.12 1.17735
7859.56 0.835369
7860.01 0.620901
7860.46 0.478567
7861.35 0.308366
7862.24 0.214785
7863.13 0.158191
7864.92 0.0961886
7866.70 0.0648267
7868.49 0.0468499
7870.27 0.0356042
7872.06 0.0281237
7875.62 0.0191238
7879.19 0.0141600
7886.33 0.00927381
7893.47 0.00720121
7900.61 0.00634786
7914.88 0.00657811
7922.02 0.00753499
7929.16 0.00927658
7936.30 0.0123258
7943.43 0.0179363
7950.57 0.0295605
7954.14 0.0405908
7957.71 0.0595224
7959.49 0.0745223
7961.28 0.0960548
7963.06 0.128525
7964.85 0.180573
7965.74 0.219205
7966.63 0.271337
7967.52 0.343898
7968.41 0.448528
7969.31 0.605750
7970.20 0.853131
7971.09 1.25994
7971.98 1.93925
7972.99 3.10160
7974.00 3.87579
7975.01 3.09935
7976.02 1.93730
7976.72 1.37520
7977.42 0.999801
7978.13 0.748803
7978.83 0.577074
7980.23 0.368496
7981.64 0.253694
7983.04 0.184612
7984.45 0.140153
7987.25 0.0885234
7990.06 0.0609429
7992.87 0.0445631
7998.49 0.0269699
8004.10 0.0183681
8009.72 0.0139715
8012.53 0.0131091
8015.34 0.0141878
8018.15 0.0261823
8019.55 0.0762824
8020.25 0.263779
8020.43 0.444683
8020.60 0.910077
8020.69 1.48702
8020.78 2.85010
8020.82 4.35086
8020.87 7.37719
8020.89 10.1549
8020.91 14.6797
8020.93 22.4700
8020.96 35.3986
8020.98 57.1361
8021.00 70.7910
8021.02 56.1293
8021.05 35.3984
8021.07 22.4699
8021.09 14.9473
8021.11 10.4781
8021.13 7.79352
8021.17 4.64238
8021.21 3.08692
8021.29 1.62783
8021.38 1.00182
8021.54 0.490277
8021.71 0.291414
8022.04 0.139343
8022.37 0.0832933
8023.70 0.0265435
8026.35 0.0112423
8031.66 0.00648480
8036.97 0.00501588
8042.27 0.00417360
8052.89 0.00314940
8063.50 0.00253491
8084.73 0.00196768
8095.34 0.00240974
8100.65 0.00496410
8103.30 0.0152973
8104.63 0.0552004
8105.29 0.202635
8105.46 0.343835
8105.62 0.707784
8105.71 1.15418
8105.79 2.19765
8105.83 3.35037
8105.87 5.58167
8105.91 10.7545
8105.94 16.2104
8105.96 25.0155
8105.98 40.3795
8106.00 50.0307
8106.02 39.6679
8106.05 25.0154
8106.06 16.9027
8106.08 12.0258
8106.11 6.74564
8106.15 4.23495
8106.18 2.88354
8106.25 1.57138
8106.32 0.983484
8106.45 0.488067
8106.59 0.290689
8107.14 0.0798526
8108.22 0.0217927
8110.40 0.00651507
8114.76 0.00255701
8123.48 0.00147885
8140.91 0.00109626
8175.77 0.000883572
8245.50 0.000822681
8315.23 0.00104201
8350.09 0.00136711
8367.52 0.00188873
8376.24 0.00334420
8380.60 0.00869923
8382.78 0.0293927
8383.87 0.108127
8384.14 0.186125
8384.41 0.394599
8384.55 0.663288
8384.68 1.33913
8384.75 2.14312
8384.82 3.94315
8384.85 5.80300
8384.89 9.26955
8384.92 16.5889
8384.94 23.3635
8384.96 33.8564
8384.98 54.6502
8385.00 67.7123
8385.02 53.6871
8385.05 33.8562
8385.07 21.4889
8385.09 14.5553
8385.11 10.1776
8385.13 7.55428
8385.17 4.53440
8385.21 3.00153
8385.29 1.58303
8385.37 0.973067
8385.54 0.473872
8385.70 0.280387
8386.36 0.0763271
8387.67 0.0210544
8390.28 0.00671666
8395.52 0.00316370
8406.00 0.00257656
8416.48 0.00333108
8421.72 0.00606266
8424.34 0.0163701
8425.65 0.0557749
8426.30 0.201314
8426.47 0.340762
8426.63 0.696720
8426.71 1.13416
8426.79 2.15436
8426.83 3.26026
8426.87 5.44635
8426.92 10.5376
8426.94 15.5944
8426.96 24.0641
8426.98 38.8429
8427.00 48.1264
8427.02 38.1583
8427.05 24.0640
8427.06 15.9230
8427.08 11.1409
8427.12 6.02320
8427.16 3.69938
8427.19 2.50852
8427.27 1.35149
8427.34 0.840865
8427.49 0.413487
8427.63 0.246259
8428.22 0.0685833
8429.39 0.0199198
8431.73 0.00725274
8436.41 0.00417905
8445.77 0.00381122
8464.50 0.00498832
8483.23 0.00763045
8492.59 0.0107358
8497.27 0.0165694
8499.62 0.0350423
8500.79 0.103164
8501.08 0.170486
8501.37 0.350865
8501.52 0.586595
8501.66 1.18180
8501.74 1.89741
8501.81 3.52376
8501.85 5.26523
8501.88 8.49049
8501.92 15.7613
8501.94 22.5719
8501.96 33.4009
8501.98 53.9086
8502.00 66.7910
8502.02 52.9588
8502.05 33.4008
8502.07 19.5390
8502.09 12.4625
8502.12 8.36650
8502.14 6.02906
8502.19 3.48938
8502.24 2.26199
8502.34 1.16858
8502.44 0.716174
8502.63 0.349245
8502.83 0.209615
8503.61 0.0649927
8505.17 0.0269068
8508.30 0.0184161
8514.56 0.0198428
8520.81 0.0251567
8527.07 0.0338484
8533.32 0.0482053
8539.58 0.0736008
8542.71 0.0939082
8545.84 0.122770
8548.96 0.164477
8552.09 0.224452
8557.05 0.358920
8562.00 0.448332
8566.96 0.358369
8571.91 0.223909
8576.19 0.146791
8580.48 0.100107
8584.76 0.0714602
8589.04 0.0531323
8597.61 0.0323325
8606.17 0.0216176
8614.74 0.0154453
8623.30 0.0115888
8640.43 0.00724445
8657.56 0.00500334
8674.69 0.00373721
8691.83 0.00315599
8700.39 0.00381138
8704.67 0.00744725
8706.81 0.0220751
8707.89 0.0780416
8708.42 0.280921
8708.55 0.471546
8708.69 0.951190
8708.76 1.52189
8708.82 2.79950
8708.86 4.14496
8708.89 6.57497
8708.92 11.6304
8708.94 16.4124
8708.96 23.2846
8708.98 37.5848
8709.00 46.5677
8709.02 36.9224
8709.05 23.2845
8709.07 15.0891
8709.08 10.3858
8709.12 5.49909
8709.16 3.33782
8709.20 2.24601
8709.28 1.19122
8709.36 0.738664
8709.51 0.362012
8709.66 0.215172
8710.28 0.0594799
8711.52 0.0170677
8714.00 0.00595446
8718.95 0.00302328
8728.85 0.00213014
8748.65 0.00170469
8768.45 0.00155631
8788.25 0.00158156
8808.06 0.00189132
8817.96 0.00228118
8827.86 0.00304642
8837.76 0.00474258
8842.71 0.00645117
8847.66 0.00956976
8850.14 0.0121927
8852.61 0.0161818
8855.09 0.0226787
8857.56 0.0343173
8860.04 0.0583854
8862.51 0.121573
8863.75 0.200980
8864.37 0.273483
8864.99 0.393008
8865.61 0.610967
8865.92 0.793705
8866.22 1.06833
8866.53 1.50805
8866.84 2.25771
8867.00 2.84093
8867.15 3.64197
8867.31 4.76957
8867.46 6.32529
8867.73 10.1218
8868.00 12.6375
8868.27 10.1060
8868.54 6.31283
8868.77 4.17578
8869.00 2.86700
8869.22 2.05610
8869.45 1.53340
8869.91 0.936028
8870.36 0.626084
8870.82 0.446708
8871.28 0.334202
8872.19 0.206828
8873.10 0.140398
8874.01 0.101505
8874.92 0.0768154
8875.84 0.0601777
8877.66 0.0398524
8879.48 0.0283857
8881.31 0.0212896
8883.13 0.0165955
8886.78 0.0109664
8890.43 0.00784715
8894.08 0.00593908
8897.72 0.00468684
8905.02 0.00319420
8912.32 0.00237004
8926.91 0.00153269
8941.50 0.00113208
8956.09 0.000906513
8985.27 0.000670117
9043.64 0.000487650
9102.00 0.000433074
9160.37 0.000451130
9189.55 0.000497426
9218.73 0.000594191
9247.91 0.000808099
9262.51 0.00102011
9277.10 0.00140228
9291.69 0.00220613
9298.98 0.00299731
9306.28 0.00442747
9309.93 0.00562578
9313.58 0.00744890
9317.22 0.0104255
9320.87 0.0157890
9322.69 0.0202594
9324.52 0.0270143
9326.34 0.0379260
9328.17 0.0572630
9329.99 0.0965771
9330.90 0.133577
9331.81 0.196779
9332.27 0.246631
9332.73 0.317993
9333.18 0.425085
9333.64 0.595877
9333.87 0.721813
9334.09 0.891101
9334.32 1.12531
9334.55 1.46040
9334.78 1.95879
9335.01 2.73224
9335.23 3.98092
9335.46 6.00825
9335.73 9.61441
9336.00 12.0041
9336.27 9.59949
9336.54 5.99647
9336.86 3.39587
9337.18 2.08456
9337.50 1.38358
9337.81 0.976990
9338.13 0.722942
9338.45 0.555716
9339.09 0.356590
9339.72 0.247506
9340.36 0.181743
9341.63 0.109813
9342.91 0.0735223
9344.18 0.0527237
9345.45 0.0397180
9346.72 0.0310590
9349.27 0.0206029
9351.82 0.0147895
9354.36 0.0112408
9356.91 0.00892974
9362.00 0.00623948
9367.09 0.00485683
9372.18 0.00413981
9377.27 0.00383809
9387.45 0.00425522
9392.55 0.00515665
9397.64 0.00700811
9402.73 0.0110737
9407.82 0.0220823
9410.37 0.0361479
9411.64 0.0491291
9412.91 0.0707830
9414.18 0.110873
9414.82 0.145001
9415.46 0.197221
9416.09 0.282614
9416.73 0.433344
9417.05 0.554051
9417.37 0.725952
9417.68 0.974998
9418.00 1.33432
9418.50 2.13478
9419.00 2.66667
9419.50 2.13277
9420.00 1.33402
9420.41 0.895402
9420.81 0.622418
9421.22 0.450538
9421.62 0.338375
9422.44 0.208612
9423.25 0.140493
9424.06 0.100734
9424.87 0.0757042
9426.50 0.0472213
9428.12 0.0322849
9429.75 0.0235159
9431.37 0.0179337
9432.99 0.0141630
9436.24 0.00954156
9439.49 0.00692461
9442.74 0.00529809
9445.99 0.00421809
9452.49 0.00291520
9458.98 0.00218832
9471.98 0.00145109
9484.97 0.00112240
9497.97 0.00101746
9510.96 0.00142358
9517.46 0.00348829
9520.71 0.0117773
9522.33 0.0439402
9523.14 0.164534
9523.35 0.281521
9523.55 0.588239
9523.65 0.975470
9523.75 1.90072
9523.80 2.95678
9523.85 5.17229
9523.88 7.34992
9523.91 10.9248
9523.93 17.4321
9523.96 29.8066
9523.98 48.1137
9524.00 59.6136
9524.02 47.2657
9524.05 29.8065
9524.06 21.4608
9524.08 15.7801
9524.10 9.40122
9524.13 6.12384
9524.16 4.27079
9524.22 2.37379
9524.28 1.51208
9524.40 0.760599
9524.51 0.457590
9524.98 0.126313
9525.91 0.0336266
9527.78 0.00907068
9531.51 0.00273714
9538.98 0.00110721
9553.91 0.000662382
9568.84 0.000559954
9583.77 0.000516041
9643.50 0.000481343
9703.23 0.000550904
9733.09 0.000699002
9748.02 0.00112720
9755.49 0.00271104
9759.22 0.00888794
9761.09 0.0328669
9762.02 0.123495
9762.49 0.448134
9762.61 0.749435
9762.72 1.48542
9762.78 2.35643
9762.84 4.21437
9762.87 6.05531
9762.90 9.32133
9762.93 15.6996
9762.96 29.0770
9762.98 46.9359
9763.00 58.1542
9763.02 46.1087
9763.05 29.0769
9763.07 18.0784
9763.09 11.8404
9763.13 5.97397
9763.18 3.53121
9763.22 2.31572
9763.31 1.20836
9763.40 0.742017
9763.57 0.358359
9763.75 0.210928
9764.45 0.0566904
9765.85 0.0151262
9768.66 0.00434793
9774.28 0.00162728
9785.51 0.00102349
9796.74 0.00121858
9802.35 0.00232554
9805.16 0.00670462
9806.56 0.0237338
9807.27 0.0881857
9807.62 0.319016
9807.79 1.05552
9807.88 2.99520
9807.92 6.68072
9807.95 11.3279
9807.97 20.5723
9807.98 32.8766
9808.00 41.1442
9808.02 32.8765
9808.03 20.5723
9808.06 10.2124
9808.09 5.64696
9808.14 2.37465
9808.24 0.805666
9808.45 0.236141
9808.86 0.0645410
9809.69 0.0174284
9811.34 0.00509353
9814.65 0.00194599
9821.27 0.00117845
9834.51 0.00106730
9860.99 0.00134036
9874.24 0.00163933
9887.48 0.00218690
9894.10 0.00267312
9900.72 0.00352818
9907.34 0.00589264
9910.65 0.0121229
9912.30 0.0338746
9913.13 0.114142
9913.54 0.396740
9913.75 1.27952
9913.80 1.99562
9913.85 3.46729
9913.90 7.37447
9913.93 11.9671
9913.96 20.4583
9913.98 33.0204
9914.00 40.9114
9914.02 32.4385
9914.05 20.4583
9914.07 11.9671
9914.10 7.50194
9914.15 3.59944
9914.20 2.07410
9914.24 1.35143
9914.34 0.694142
9914.44 0.423750
9914.84 0.123199
9915.63 0.0374823
9917.22 0.0152438
9920.40 0.0114783
9923.58 0.0139147
9926.75 0.0199056
9929.93 0.0330155
9933.11 0.0684249
9934.70 0.114061
9935.49 0.156591
9936.29 0.228469
9936.68 0.284727
9937.08 0.364278
9937.48 0.482070
9937.87 0.666483
9938.27 0.976824
9938.47 1.21726
9938.67 1.55101
9938.87 2.03402
9939.07 2.74887
9939.26 3.84734
9939.46 5.52160
9939.73 8.82860
9940.00 11.0309
9940.27 8.81490
9940.54 5.51078
9940.77 3.61124
9941.00 2.46534
9941.24 1.75850
9941.47 1.30788
9941.93 0.794937
9942.40 0.530883
9942.86 0.378267
9943.33 0.282986
9944.26 0.175221
9945.19 0.119143
9946.11 0.0863591
9947.04 0.0655715
9947.97 0.0515770
9949.83 0.0344960
9951.69 0.0248847
9953.55 0.0189507
9955.41 0.0150373
9959.12 0.0103727
9962.84 0.00782365
9970.27 0.00532920
9977.70 0.00426545
9985.14 0.00380166
10000.0 0.00372756
10019.1 0.00480934
10028.7 0.00607723
10038.3 0.00839109
10047.9 0.0131442
10052.6 0.0176504
10057.4 0.0253876
10062.2 0.0404570
10064.6 0.0539508
10067.0 0.0758295
10069.4 0.114605
10070.6 0.146321
10071.8 0.192459
10073.0 0.264016
10074.2 0.379224
10075.4 0.578723
10076.6 0.927225
10077.8 1.48570
10079.0 1.85421
10080.2 1.48044
10081.5 0.926864
10082.8 0.548988
10084.1 0.348698
10085.4 0.237102
10086.7 0.170507
10088.1 0.127912
10089.4 0.0996194
10092.0 0.0654522
10094.7 0.0464616
10097.3 0.0349616
10102.6 0.0223452
10107.9 0.0159994
10113.2 0.0124343
10123.7 0.00892767
10134.3 0.00754971
10144.9 0.00716300
10166.0 0.00816693
10187.2 0.0117388
10197.8 0.0152580
10203.0 0.0178007
10208.3 0.0211274
10213.6 0.0255914
10218.9 0.0317195
10224.2 0.0404453
10229.5 0.0533279
10234.8 0.0733729
10240.0 0.106276
10242.7 0.130946
10245.3 0.163839
10248.0 0.208119
10250.6 0.267181
10255.8 0.425983
10261.0 0.531214
10266.2 0.425412
10271.4 0.266619
10276.1 0.172639
10280.7 0.116674
10285.4 0.0828090
10290.0 0.0613717
10299.4 0.0373192
10308.7 0.0250811
10318.0 0.0181344
10327.3 0.0139641
10336.6 0.0120510
10339.0 0.0124703
10341.3 0.0147396
10343.6 0.0290164
10344.8 0.0848123
10345.4 0.287463
10345.5 0.486978
10345.7 0.953565
10345.7 1.60484
10345.8 2.92349
10345.9 4.53978
10345.9 6.77424
10345.9 13.1984
10345.9 19.7640
10346.0 27.4468
10346.0 45.8335
10346.0 54.8854
10346.0 45.8333
10346.0 27.4466
10346.1 19.7640
10346.1 13.1984
10346.1 6.77424
10346.2 4.03132
10346.2 2.65298
10346.3 1.39046
10346.4 0.852986
10346.5 0.416623
10346.7 0.255127
10347.3 0.0752819
10348.5 0.0255980
10351.0 0.0123678
10356.0 0.00842280
10366.0 0.00654398
10386.0 0.00505352
10406.0 0.00453253
10416.0 0.00498460
10421.0 0.00728007
10423.5 0.0163840
10424.7 0.0514549
10425.3 0.178853
10425.6 0.602573
10425.7 0.983521
10425.8 1.87839
10425.9 4.79955
10425.9 9.35306
10426.0 19.4523
10426.0 32.4849
10426.0 38.9010
10426.0 32.4848
10426.0 19.4523
10426.1 11.3781
10426.1 7.78338
10426.1 4.16610
10426.2 1.56620
10426.3 0.806889
10426.4 0.490321
10426.8 0.143721
10427.5 0.0416266
10428.9 0.0139051
10431.7 0.00669860
10437.3 0.00495361
10448.5 0.00484114
10471.0 0.00648456
10482.2 0.00843294
10493.5 0.0121382
10499.1 0.0153111
10504.7 0.0202029
10510.3 0.0286523
10513.2 0.0377462
10513.9 0.0430147
10514.6 0.0548991
10515.3 0.107607
10515.6 0.281567
10515.8 0.822528
10515.9 2.15102
10515.9 4.05319
10515.9 6.00873
10516.0 11.7470
10516.0 23.5499
10516.0 19.0011
10516.0 11.7472
10516.1 6.00915
10516.1 3.40023
10516.2 1.47831
10516.3 0.530686
10516.5 0.185935
10517.0 0.0832914
10517.9 0.0571234
10519.8 0.0568373
10523.6 0.0749729
10529.3 0.117770
10535.0 0.146437
10540.7 0.117779
10546.4 0.0748608
10550.3 0.0543124
10554.3 0.0406404
10562.2 0.0256387
10570.0 0.0190249
10577.9 0.0168100
10585.8 0.0183490
10589.7 0.0211927
10593.7 0.0266199
10597.6 0.0371999
10599.6 0.0462393
10601.5 0.0599337
10603.5 0.0817525
10605.5 0.118772
10606.5 0.147371
10607.4 0.186167
10608.4 0.239786
10609.4 0.313392
10610.3 0.401199
10611.2 0.502270
10613.0 0.629556
10613.9 0.591778
10614.8 0.501777
10616.6 0.312633
10617.7 0.230124
10618.8 0.173166
10621.1 0.105314
10623.3 0.0699909
10625.5 0.0498299
10627.8 0.0373845
10630.0 0.0292057
10634.4 0.0194928
10638.9 0.0141668
10643.4 0.0109278
10652.3 0.00733916
10661.2 0.00549920
10670.1 0.00448120
10679.0 0.00423389
10683.5 0.00579621
10685.7 0.0128290
10686.9 0.0405156
10687.4 0.144592
10687.7 0.510540
10687.8 1.63999
10687.9 4.38045
10687.9 7.98768
10688.0 19.1207
10688.0 29.2636
10688.0 38.3452
10688.0 29.2636
10688.0 19.1206
10688.1 10.1109
10688.1 5.26630
10688.2 2.08037
10688.3 0.720444
10688.5 0.207829
10689.0 0.0577725
10689.9 0.0171833
10691.7 0.00659295
10695.4 0.00376092
10702.7 0.00286443
10717.4 0.00240590
10746.7 0.00215141
10776.0 0.00227956
10805.3 0.00282070
10834.6 0.00416020
10849.3 0.00549037
10864.0 0.00780756
10878.6 0.0123092
10886.0 0.0163160
10893.3 0.0227411
10900.6 0.0339231
10904.3 0.0428649
10907.9 0.0556993
10911.6 0.0749899
10915.3 0.105156
10918.9 0.154682
10922.6 0.236737
10926.8 0.379055
10931.0 0.473995
10935.2 0.378666
10939.4 0.236352
10943.3 0.150301
10947.2 0.100273
10951.1 0.0704777
10955.0 0.0518269
10962.8 0.0310919
10970.5 0.0206336
10978.3 0.0146744
10986.1 0.0109839
11001.7 0.00684934
11017.3 0.00472577
11032.8 0.00353405
11048.4 0.00306018
11056.2 0.00403658
11060.1 0.00890732
11062.0 0.0283800
11063.0 0.101805
11063.5 0.369379
11063.7 1.20861
11063.8 1.89396
11063.8 3.36218
11063.9 7.35863
11063.9 12.3358
11063.9 18.4753
11064.0 25.6595
11064.0 42.8530
11064.0 51.3175
11064.0 42.8528
11064.0 25.6594
11064.1 18.4753
11064.1 12.3358
11064.1 7.35866
11064.2 3.36221
11064.2 1.74485
11064.3 1.13126
11064.6 0.343313
11065.1 0.0961502
11066.1 0.0265178
11068.1 0.00826062
11072.1 0.00347101
11080.2 0.00210743
11096.3 0.00152890
11128.5 0.00109174
11160.7 0.000922234
11176.8 0.00113375
11184.9 0.00227176
11188.9 0.00689065
11190.9 0.0248755
11192.0 0.0936705
11192.5 0.337962
11192.7 1.11681
11192.8 1.87073
11192.8 3.32203
11192.9 7.27243
11192.9 12.1922
11192.9 18.2610
11193.0 25.3624
11193.0 42.3577
11193.0 50.7247
11193.0 42.3576
11193.0 25.3623
11193.1 14.8330
11193.1 8.54238
11193.2 3.71883
11193.2 2.03765
11193.3 1.27782
11193.4 0.634622
11193.5 0.377718
11194.0 0.103185
11195.0 0.0276718
11196.9 0.00759609
11200.7 0.00240733
11208.3 0.00108241
11223.5 0.000764039
11238.7 0.000988688
11246.3 0.00225937
11250.2 0.00739527
11252.1 0.0273481
11253.0 0.102442
11253.5 0.375476
11253.6 0.630983
11253.7 1.27069
11253.8 2.02639
11253.8 3.69846
11253.9 8.49587
11253.9 14.7525
11254.0 25.2247
11254.0 42.1279
11254.0 50.4495
11254.0 42.1278
11254.0 25.2246
11254.1 14.7525
11254.1 8.49589
11254.2 4.16593
11254.2 2.43136
11254.3 1.58372
11254.4 0.820873
11254.5 0.499983
11254.9 0.138242
11255.7 0.0366591
11257.3 0.00980644
11260.6 0.00284060
11267.1 0.00105186
11280.2 0.000576014
11306.3 0.000417112
11358.5 0.000326380
11410.7 0.000303253
11436.8 0.000394892
11449.9 0.000824857
11456.4 0.00255995
11459.7 0.00938670
11461.3 0.0357417
11462.1 0.135465
11462.6 0.490601
11462.8 1.55457
11462.9 4.08969
11462.9 8.34072
11462.9 14.4832
11463.0 24.7646
11463.0 41.3596
11463.0 49.5295
11463.0 41.3594
11463.0 24.7645
11463.1 14.4832
11463.1 9.90588
11463.1 4.63814
11463.2 1.82627
11463.3 0.904407
11463.4 0.562351
11463.8 0.160421
11464.5 0.0430429
11466.0 0.0113010
11469.0 0.00304538
11474.9 0.000937842
11486.7 0.000401257
11510.4 0.000259160
11557.8 0.000215295
11652.5 0.000223364
11699.9 0.000272973
11723.6 0.000326675
11747.2 0.000423760
11770.9 0.000618353
11782.8 0.000795920
11794.6 0.00108798
11806.4 0.00161750
11812.4 0.00206066
11818.3 0.00273343
11824.2 0.00383030
11830.1 0.00582392
11833.1 0.00753997
11836.0 0.0103812
11839.0 0.0172371
11840.5 0.0328954
11841.2 0.0831210
11841.6 0.250716
11841.8 0.775520
11841.9 1.94227
11841.9 4.12775
11842.0 10.2921
11842.0 17.1767
11842.0 20.5660
11842.0 17.1767
11842.0 10.2923
11842.1 4.12823
11842.1 1.94301
11842.2 0.717053
11842.4 0.232484
11842.8 0.0797965
11843.6 0.0392225
11845.2 0.0351989
11846.8 0.0446485
11848.4 0.0634258
11850.0 0.0996052
11850.8 0.130904
11851.6 0.179492
11852.4 0.260138
11853.2 0.406098
11853.6 0.525736
11854.0 0.699786
11854.4 0.958441
11854.8 1.33041
11855.4 2.13360
11856.0 2.65602
11856.6 2.11880
11857.2 1.33008
11857.8 0.790680
11858.4 0.501241
11859.1 0.339834
11859.7 0.243473
11860.3 0.182193
11861.0 0.141109
11862.2 0.0917640
11863.5 0.0641099
11864.7 0.0473675
11867.2 0.0287963
11869.7 0.0193364
11872.2 0.0138797
11874.8 0.0104509
11877.3 0.00815739
11882.3 0.00537216
11887.3 0.00381600
11892.3 0.00285746
11897.4 0.00222546
11907.4 0.00146949
11917.4 0.00105237
11927.5 0.000797476
11937.5 0.000630543
11957.6 0.000431697
11977.7 0.000321916
12017.9 0.000210146
12058.1 0.000156252
12098.2 0.000125492
12178.6 9.21854E-05
12339.3 6.30787E-05
12500.0 4.90327E-05
12500.0 0.0878517
15000.0 0.0777716
17000.0 0.0713505
17500.0 0.0699150
20000.0 0.0664022
25000.0 0.0609490
30000.0 0.0577013
35000.0 0.0550624
40000.0 0.0528403
45000.0 0.0510702
55000.0 0.0520761
60000.0 0.0494703
70000.0 0.0450740
72000.0 0.0440141
85000.0 0.0375012
90000.0 0.0350513
99999.9 0.0331908
100000 0.0331303
150000 0.0278240
200000 0.0248990
250000 0.0232034
281257 0.0224734
281257 0.0224734
300000 0.0216419
393409 0.0205786
500000 0.0196817
666474 0.0205570
700000 0.0180919
800000 0.0165771
900000 0.0159371
1.00000E+06 0.0157018
1.12500E+06 0.0160338
1.25000E+06 0.0163367
1.29950E+06 0.0166085
1.29951E+06 0.0166085
1.47368E+06 0.0164252
1.50000E+06 0.0162997
1.62500E+06 0.0165456
1.75000E+06 0.0167765
1.80319E+06 0.0169684
1.85356E+06 0.0168690
1.91400E+06 0.0168063
2.00000E+06 0.0166412
2.05503E+06 0.0166345
2.05503E+06 0.0166345
2.09533E+06 0.0165831
2.13562E+06 0.0165328
2.18258E+06 0.0159835
2.22953E+06 0.0154636
2.27649E+06 0.0149709
2.32345E+06 0.0145035
2.37040E+06 0.0140596
2.41736E+06 0.0136377
2.46431E+06 0.0132361
2.51127E+06 0.0128536
2.57236E+06 0.0123825
2.63345E+06 0.0119391
2.69454E+06 0.0115212
2.75564E+06 0.0111269
2.81673E+06 0.0107542
2.87782E+06 0.0104016
2.93891E+06 0.0100677
3.00000E+06 0.00975097
3.06250E+06 0.00918279
3.12500E+06 0.00865820
3.18750E+06 0.00817310
3.25000E+06 0.00772383
3.31250E+06 0.00730711
3.37500E+06 0.00692005
3.43750E+06 0.00656004
3.50000E+06 0.00622475
3.56250E+06 0.00591208
3.62500E+06 0.00562016
3.68750E+06 0.00534727
3.75000E+06 0.00509189
3.81250E+06 0.00485264
3.87500E+06 0.00462824
3.93750E+06 0.00441757
4.00000E+06 0.00421958
4.05902E+06 0.00399293
4.11804E+06 0.00378146
4.17705E+06 0.00358397
4.23607E+06 0.00339935
4.29509E+06 0.00322660
4.35411E+06 0.00306481
4.41312E+06 0.00291315
4.47214E+06 0.00277086
4.53812E+06 0.00263073
4.60411E+06 0.00249956
4.67009E+06 0.00237665
4.73607E+06 0.00226139
4.80205E+06 0.00215320
4.86804E+06 0.00205156
4.93402E+06 0.00195599
5.00000E+06 0.00186605
5.11659E+06 0.00170926
5.23318E+06 0.00156875
5.35521E+06 0.00145182
5.47723E+06 0.00134595
5.54109E+06 0.00130249
5.60495E+06 0.00126090
5.66880E+06 0.00122110
5.73266E+06 0.00118297
5.79950E+06 0.00115266
5.86633E+06 0.00112346
5.93317E+06 0.00109531
6.00000E+06 0.00106818
6.11787E+06 0.00103663
6.23574E+06 0.00100658
6.40537E+06 0.000985742
6.48074E+06 0.000976795
6.60806E+06 0.000974900
6.73537E+06 0.000973045
6.84467E+06 0.000980404
6.95396E+06 0.000987701
6.99362E+06 0.000990334
7.00000E+06 0.000990757
7.24166E+06 0.000989034
7.48331E+06 0.000987371
7.68005E+06 0.00100736
7.87679E+06 0.00102723
8.00000E+06 0.00103962
8.14238E+06 0.00103494
8.31383E+06 0.00102943
8.48528E+06 0.00102407
8.60890E+06 0.00102564
8.73251E+06 0.00102719
8.76595E+06 0.00102760
8.79938E+06 0.00102802
8.83282E+06 0.00102843
8.86626E+06 0.00102884
8.89969E+06 0.00102925
8.93313E+06 0.00102966
8.96656E+06 0.00103006
9.00000E+06 0.00103047
9.06085E+06 0.00102843
9.12171E+06 0.00102640
9.18256E+06 0.00102440
9.24342E+06 0.00102241
9.30427E+06 0.00102043
9.36512E+06 0.00101847
9.42598E+06 0.00101653
9.48683E+06 0.00101461
9.55098E+06 0.00101260
9.61512E+06 0.00101061
9.67927E+06 0.00100863
9.74342E+06 0.00100667
9.80756E+06 0.00100473
9.87171E+06 0.00100280
9.93585E+06 0.00100089
1.00000E+07 0.000998993
1.00610E+07 0.000997445
1.01220E+07 0.000995909
1.01830E+07 0.000994384
1.02441E+07 0.000992871
1.03051E+07 0.000991368
1.03661E+07 0.000989877
1.04271E+07 0.000988398
1.04881E+07 0.000986928
1.05521E+07 0.000985399
1.06161E+07 0.000983881
1.06801E+07 0.000982375
1.07441E+07 0.000980880
1.08080E+07 0.000979396
1.08720E+07 0.000977923
1.09360E+07 0.000976461
1.10000E+07 0.000975010
1.10611E+07 0.000974534
1.11223E+07 0.000974060
1.11834E+07 0.000973589
1.12446E+07 0.000973121
1.13057E+07 0.000972656
1.13668E+07 0.000972193
1.14280E+07 0.000971733
1.14891E+07 0.000971276
1.15530E+07 0.000970801
1.16168E+07 0.000970329
1.16807E+07 0.000969860
1.17446E+07 0.000969394
1.18084E+07 0.000968930
1.18723E+07 0.000968470
1.19361E+07 0.000968012
1.20000E+07 0.000967556
1.20613E+07 0.000968140
1.21225E+07 0.000968721
1.21838E+07 0.000969300
1.22450E+07 0.000969876
1.23063E+07 0.000970450
1.23675E+07 0.000971021
1.24288E+07 0.000971590
1.24900E+07 0.000972156
1.25538E+07 0.000972743
1.26175E+07 0.000973327
1.26813E+07 0.000973909
1.27450E+07 0.000974487
1.28088E+07 0.000975064
1.28725E+07 0.000975638
1.29363E+07 0.000976209
1.30000E+07 0.000976778
1.30561E+07 0.000978131
1.31122E+07 0.000979480
1.31682E+07 0.000980826
1.32243E+07 0.000982167
1.32721E+07 0.000983307
1.33199E+07 0.000984445
1.33677E+07 0.000985580
1.34155E+07 0.000986711
1.34632E+07 0.000987840
1.35110E+07 0.000988967
1.35588E+07 0.000990091
1.36066E+07 0.000991211
1.36558E+07 0.000992362
1.37050E+07 0.000993510
1.37541E+07 0.000994656
1.38033E+07 0.000995798
1.38525E+07 0.000996938
1.39017E+07 0.000998074
1.39508E+07 0.000999209
1.40000E+07 0.00100034
1.41250E+07 0.00100485
1.42500E+07 0.00100933
1.43750E+07 0.00101380
1.45000E+07 0.00101824
1.47500E+07 0.00102708
1.50000E+07 0.00103584
1.50557E+07 0.00103841
1.51114E+07 0.00104098
1.51670E+07 0.00104354
1.52227E+07 0.00104611
1.52784E+07 0.00104866
1.53341E+07 0.00105122
1.53897E+07 0.00105377
1.54454E+07 0.00105632
1.55011E+07 0.00105887
1.55568E+07 0.00106141
1.56124E+07 0.00106395
1.56681E+07 0.00106649
1.57238E+07 0.00106902
1.57795E+07 0.00107155
1.58351E+07 0.00107408
1.58908E+07 0.00107661
1.59454E+07 0.00107908
1.60000E+07 0.00108155
1.60666E+07 0.00108521
1.61332E+07 0.00108887
1.61874E+07 0.00109184
1.62416E+07 0.00109481
1.62957E+07 0.00109778
1.63499E+07 0.00110075
1.64041E+07 0.00110372
1.64583E+07 0.00110668
1.65124E+07 0.00110964
1.65666E+07 0.00111260
1.66208E+07 0.00111556
1.66750E+07 0.00111852
1.67291E+07 0.00112147
1.67833E+07 0.00112443
1.68375E+07 0.00112738
1.68917E+07 0.00113033
1.69458E+07 0.00113327
1.70000E+07 0.00113622
1.70625E+07 0.00114015
1.71250E+07 0.00114408
1.71875E+07 0.00114801
1.72500E+07 0.00115194
1.73125E+07 0.00115587
1.73750E+07 0.00115979
1.74375E+07 0.00116372
1.75000E+07 0.00116764
1.75625E+07 0.00117157
1.76250E+07 0.00117549
1.76875E+07 0.00117941
1.77500E+07 0.00118333
1.78125E+07 0.00118725
1.78750E+07 0.00119117
1.79375E+07 0.00119509
1.80000E+07 0.00119901
1.80625E+07 0.00120340
1.81250E+07 0.00120779
1.81875E+07 0.00121217
1.82500E+07 0.00121656
1.83125E+07 0.00122095
1.83750E+07 0.00122535
1.84375E+07 0.00122974
1.85000E+07 0.00123413
1.85625E+07 0.00123852
1.86250E+07 0.00124292
1.86875E+07 0.00124731
1.87500E+07 0.00125171
1.88125E+07 0.00125611
1.88750E+07 0.00126050
1.89375E+07 0.00126490
1.90000E+07 0.00126930
1.92500E+07 0.00128859
1.95000E+07 0.00130792
1.97500E+07 0.00132729
2.00000E+07 0.00134670