Nd-150(n,g) ENDF/B-VII.1
Energy(eV) XS(b)
1.00000E-05 52.3458
1.25000E-05 46.8195
1.50000E-05 42.7401
2.00000E-05 37.0140
2.75000E-05 31.5657
3.50000E-05 27.9800
4.25000E-05 25.3914
5.00000E-05 23.4097
6.25000E-05 20.9383
7.50000E-05 19.1140
0.000100000 16.5532
0.000125000 14.8056
0.000150000 13.5156
0.000200000 11.7049
0.000275000 9.98193
0.000350000 8.84803
0.000425000 8.02945
0.000500000 7.40279
0.000625000 6.62125
0.000750000 6.04434
0.00100000 5.23455
0.00125000 4.68191
0.00150000 4.27398
0.00200000 3.70136
0.00275000 3.15652
0.00350000 2.79794
0.00425000 2.53908
0.00500000 2.34091
0.00625000 2.09376
0.00750000 1.91132
0.0100000 1.65523
0.0125000 1.48046
0.0150000 1.35145
0.0200000 1.17036
0.0253000 1.04054
0.0314750 0.932871
0.0376500 0.852918
0.0500000 0.740073
0.0625000 0.661895
0.0750000 0.604182
0.100000 0.523164
0.125000 0.467866
0.150000 0.427042
0.200000 0.369726
0.275000 0.315171
0.350000 0.279253
0.500000 0.233445
0.750000 0.190344
1.00000 0.164618
1.50000 0.134047
2.00000 0.115780
2.75000 0.0983533
3.50000 0.0868506
5.00000 0.0721381
7.50000 0.0582489
10.0000 0.0499526
15.0000 0.0401696
20.0000 0.0344959
27.5000 0.0295285
35.0000 0.0270116
50.0000 0.0283279
57.1912 0.0348815
60.7868 0.0422367
64.3824 0.0562081
67.9780 0.0867168
69.7758 0.117377
71.5736 0.173578
72.4725 0.221145
73.3714 0.294110
74.2703 0.414444
75.1692 0.634338
75.6187 0.820056
76.0681 1.10442
76.5176 1.57219
76.9670 2.42364
77.1917 3.13977
77.4165 4.23145
77.6412 6.01633
77.7535 7.36809
77.8097 8.22236
77.8659 9.23489
77.8940 9.81323
77.9221 10.4476
77.9502 11.1456
77.9783 11.9163
78.0064 12.7699
78.0345 13.7188
78.0625 14.7779
78.0906 15.9646
78.1187 17.3006
78.1468 18.8117
78.2030 22.4955
78.2592 27.3787
78.3154 34.0436
78.3715 43.4757
78.4277 57.4381
78.4839 79.3641
78.5120 95.3418
78.5401 116.648
78.5682 145.924
78.5963 187.652
78.6244 249.920
78.6524 348.452
78.6805 516.850
78.6946 648.999
78.7086 835.927
78.7227 1110.31
78.7367 1528.14
78.7508 2187.43
78.7648 3233.63
78.7824 5173.17
78.8000 6465.43
78.8176 5171.53
78.8352 3231.81
78.8559 1836.42
78.8765 1128.12
78.8972 748.989
78.9179 528.906
78.9386 391.673
78.9592 300.976
79.0006 192.986
79.0419 133.879
79.0832 98.1779
79.1659 59.1606
79.2486 39.4666
79.3313 28.1774
79.4139 21.1141
79.4966 16.4061
79.6620 10.7178
79.8273 7.54466
79.9927 5.59661
80.1580 4.31577
80.4887 2.79000
80.8194 1.95078
81.1501 1.44060
81.4808 1.10758
82.1422 0.713859
82.8036 0.498970
83.4650 0.369055
84.1264 0.284612
85.4492 0.185227
86.7720 0.131242
88.0948 0.0987158
89.4176 0.0776263
92.0632 0.0528591
94.7088 0.0394223
100.000 0.0260540
106.250 0.0190670
112.500 0.0155493
125.000 0.0122403
150.000 0.0101467
175.000 0.0100063
200.000 0.0111204
216.471 0.0127826
232.941 0.0157766
249.412 0.0215418
257.647 0.0268194
261.764 0.0317315
263.823 0.0399051
264.338 0.0467885
264.853 0.0652367
265.110 0.0901520
265.239 0.114689
265.367 0.158911
265.496 0.251661
265.560 0.342087
265.625 0.502422
265.657 0.634126
265.689 0.830028
265.721 1.13961
265.753 1.66861
265.786 2.69205
265.802 3.60242
265.818 5.05302
265.834 7.59731
265.850 12.5795
265.858 17.0462
265.866 24.0049
265.874 35.4490
265.882 54.5624
265.891 87.4745
265.900 109.096
265.909 87.0917
265.918 54.5661
265.924 39.7870
265.930 29.7166
265.941 17.7509
265.953 11.5816
265.964 8.08852
265.976 5.94733
265.987 4.54940
266.010 2.90962
266.033 2.01769
266.056 1.48319
266.102 0.904002
266.148 0.612800
266.194 0.446862
266.240 0.343275
266.286 0.274331
266.378 0.191117
266.469 0.144819
266.653 0.0978844
266.837 0.0758222
267.021 0.0637961
267.388 0.0519352
268.123 0.0439843
268.858 0.0418459
271.798 0.0433837
277.677 0.0554214
283.557 0.0763157
289.437 0.114551
292.376 0.146783
295.316 0.196053
298.256 0.276957
299.726 0.338521
300.461 0.377556
301.196 0.423938
301.563 0.450481
301.931 0.479653
302.298 0.511812
302.666 0.547371
303.033 0.586851
303.401 0.630837
303.768 0.680045
304.136 0.735319
304.503 0.797737
304.871 0.868566
305.606 1.04216
306.341 1.27428
307.075 1.59449
307.810 2.05387
308.545 2.74634
309.280 3.86140
309.648 4.69361
310.015 5.82731
310.383 7.42848
310.750 9.79286
311.118 13.4928
311.485 19.7507
311.669 24.6427
311.853 31.5789
312.036 41.8707
312.220 58.0087
312.404 85.2665
312.588 135.910
312.680 178.612
312.771 242.353
312.863 340.463
312.955 491.556
313.078 785.317
313.200 980.388
313.323 783.306
313.446 488.842
313.588 279.825
313.730 172.846
313.872 115.175
314.015 81.5342
314.157 60.4733
314.299 46.5309
314.583 29.8859
314.867 20.7536
315.152 15.2314
315.720 9.18609
316.289 6.13157
316.857 4.37924
317.426 3.28256
317.994 2.55131
319.131 1.66774
320.268 1.17484
321.405 0.872290
322.542 0.673415
324.816 0.436632
327.090 0.306522
329.364 0.227524
331.638 0.176041
336.186 0.115353
340.734 0.0824278
345.282 0.0626998
349.830 0.0500454
358.926 0.0356037
368.022 0.0283754
386.214 0.0232131
404.406 0.0246970
422.598 0.0329784
431.694 0.0417002
440.790 0.0567709
449.886 0.0854935
454.434 0.112291
456.708 0.139745
457.276 0.155808
457.845 0.192820
458.129 0.239547
458.271 0.284602
458.413 0.365128
458.555 0.533088
458.626 0.696679
458.697 0.987121
458.769 1.58242
458.804 2.14631
458.840 3.11780
458.875 5.01395
458.893 6.71718
458.911 9.46171
458.928 14.3485
458.946 24.0784
458.955 32.9952
458.964 47.4461
458.973 72.1788
458.982 114.928
458.991 183.952
459.000 230.033
459.009 183.955
459.018 114.933
459.025 81.1973
459.031 58.7885
459.038 43.8989
459.044 33.8921
459.057 21.6511
459.070 14.9271
459.083 10.8880
459.096 8.28831
459.122 5.27151
459.148 3.65633
459.173 2.70093
459.225 1.67165
459.277 1.15844
459.328 0.867520
459.432 0.566606
459.535 0.422734
459.638 0.343298
459.845 0.263879
460.258 0.208977
460.671 0.192749
462.324 0.194799
463.977 0.219056
465.630 0.252948
466.456 0.273645
467.282 0.297289
468.109 0.324380
468.935 0.355562
469.348 0.372938
469.762 0.391664
470.588 0.433748
471.414 0.483190
472.241 0.541787
473.067 0.611952
473.894 0.696920
474.720 0.801161
475.546 0.930967
476.373 1.09543
477.199 1.30806
478.026 1.58967
478.852 1.97363
479.678 2.51617
480.505 3.31808
481.331 4.57461
482.158 6.70477
482.571 8.37244
482.984 10.7428
483.397 14.2670
483.810 19.8160
484.224 29.2316
484.637 46.8766
484.843 61.8714
485.050 84.4666
485.257 119.581
485.463 174.372
485.732 278.887
486.000 348.368
486.269 278.504
486.537 174.000
486.747 118.462
486.958 83.2006
487.168 60.6777
487.379 45.8225
487.799 28.4377
488.220 19.2136
488.641 13.7974
489.061 10.3679
489.903 6.44954
490.744 4.38837
491.586 3.17536
492.427 2.40259
493.269 1.88055
494.951 1.24128
496.634 0.879924
498.317 0.656079
500.000 0.507956
502.542 0.364024
505.083 0.273716
510.166 0.171094
515.249 0.117245
520.332 0.0855538
525.415 0.0653568
530.498 0.0517098
540.664 0.0350070
550.830 0.0255922
560.996 0.0198002
581.328 0.0134491
601.660 0.0104439
621.992 0.00926792
632.158 0.00942860
642.324 0.0108742
647.407 0.0131636
649.949 0.0154978
652.490 0.0197962
655.032 0.0290432
656.302 0.0382954
657.573 0.0552341
658.209 0.0695654
658.844 0.0915405
659.479 0.127754
660.115 0.193800
660.432 0.249462
660.750 0.334466
661.068 0.473743
661.385 0.725648
661.544 0.936163
661.703 1.25467
661.862 1.77068
662.021 2.68716
662.100 3.44034
662.180 4.55963
662.259 6.32871
662.339 9.36489
662.378 11.7709
662.398 13.3393
662.418 15.2304
662.438 17.5631
662.458 20.4530
662.478 24.1302
662.497 28.8510
662.517 35.1111
662.537 43.5447
662.557 55.3806
662.577 72.4300
662.597 98.3201
662.616 139.144
662.636 207.287
662.656 321.853
662.678 515.420
662.700 643.672
662.711 605.640
662.722 514.459
662.744 321.827
662.770 182.066
662.796 111.705
662.822 74.1118
662.848 52.3141
662.874 38.6901
662.900 29.7315
662.951 19.0654
663.003 13.2215
663.055 9.70021
663.159 5.84809
663.262 3.90449
663.366 2.79032
663.470 2.09330
663.573 1.62899
663.781 1.06733
663.988 0.753937
664.196 0.561487
664.403 0.434961
664.818 0.284082
665.232 0.201054
665.647 0.150540
666.062 0.117544
666.891 0.0784943
667.721 0.0571641
668.550 0.0442605
669.380 0.0358748
671.039 0.0260184
672.698 0.0206931
676.015 0.0154977
682.651 0.0121468
689.287 0.0114915
702.558 0.0127646
715.830 0.0167560
722.465 0.0203997
729.101 0.0261062
735.737 0.0356191
742.372 0.0530959
745.690 0.0678848
749.008 0.0905416
752.326 0.127819
755.644 0.195644
757.303 0.252657
758.962 0.339504
760.621 0.481329
761.035 0.530912
761.450 0.588630
761.865 0.656384
762.279 0.736641
762.694 0.832703
763.109 0.948948
763.524 1.09149
763.938 1.26889
764.353 1.49357
764.768 1.78377
765.183 2.16776
765.597 2.69068
766.012 3.42864
766.427 4.51687
766.841 6.21705
767.256 9.08686
767.464 11.3244
767.671 14.4918
767.878 19.1752
768.086 26.4893
768.293 38.7695
768.500 61.3827
768.604 80.2746
768.708 108.265
768.811 150.842
768.915 215.625
769.058 344.956
769.200 431.099
769.343 344.805
769.485 215.477
769.575 157.830
769.665 117.782
769.844 70.4942
770.024 46.0255
770.204 32.1386
770.384 23.6126
770.563 18.0400
770.923 11.4773
771.282 7.92254
771.641 5.79025
772.360 3.47456
773.079 2.31247
773.798 1.64878
774.516 1.23460
775.235 0.958999
776.672 0.626624
778.110 0.441550
779.547 0.328070
780.985 0.253529
783.860 0.164806
786.735 0.116054
789.610 0.0864381
792.485 0.0671194
798.234 0.0443039
803.984 0.0318796
809.734 0.0243952
815.484 0.0195586
826.984 0.0139473
838.483 0.0110154
861.483 0.00848128
884.482 0.00796921
907.482 0.00873162
930.481 0.0111367
941.981 0.0139827
944.856 0.0155088
947.731 0.0187473
949.168 0.0226607
950.606 0.0330971
951.324 0.0472611
952.043 0.0869272
952.402 0.141540
952.582 0.195756
952.762 0.294087
952.941 0.501900
953.031 0.706006
953.121 1.07108
953.166 1.37371
953.211 1.82643
953.256 2.54924
953.301 3.80805
953.346 6.29650
953.368 8.57406
953.391 12.3184
953.413 19.1683
953.424 24.8754
953.436 33.4710
953.447 47.3266
953.458 70.8421
953.469 114.268
953.480 199.350
953.490 318.386
953.500 398.597
953.510 318.388
953.520 199.251
953.531 113.744
953.542 70.2933
953.554 46.7080
953.565 33.0961
953.576 24.5118
953.588 18.8796
953.610 12.1260
953.633 8.42480
953.656 6.18689
953.701 3.73830
953.747 2.50125
953.792 1.79152
953.837 1.34725
953.883 1.05094
953.974 0.692746
954.064 0.492785
954.246 0.289215
954.427 0.192858
954.609 0.139827
954.972 0.0865326
955.698 0.0481056
956.425 0.0346870
957.877 0.0253952
959.330 0.0225155
965.140 0.0218994
976.760 0.0293955
988.380 0.0451177
994.190 0.0590119
1000.00 0.0811049
1003.92 0.104319
1007.85 0.139607
1009.81 0.164577
1010.79 0.179704
1011.77 0.197055
1012.75 0.217088
1013.73 0.240384
1014.72 0.267695
1015.70 0.299960
1016.68 0.338539
1017.66 0.385144
1018.64 0.442164
1019.62 0.512946
1020.60 0.602300
1021.58 0.717329
1022.56 0.868879
1023.54 1.07417
1024.52 1.36189
1025.51 1.78260
1026.49 2.43227
1027.47 3.51082
1027.96 4.33884
1028.45 5.49050
1028.94 7.16264
1029.43 9.69950
1029.92 13.8036
1030.41 20.9269
1030.90 34.4156
1031.15 45.6246
1031.39 61.4848
1031.80 98.2751
1032.20 122.722
1032.61 98.1780
1033.01 61.3908
1033.47 35.5159
1033.93 22.1082
1034.39 14.8063
1034.85 10.5176
1035.31 7.81672
1035.77 6.02578
1036.68 3.88028
1037.60 2.69860
1038.52 1.98311
1040.36 1.19804
1042.20 0.800678
1044.03 0.572472
1045.87 0.429545
1047.71 0.334189
1051.38 0.218903
1055.05 0.154554
1058.73 0.115037
1062.40 0.0890538
1069.75 0.0581072
1077.10 0.0410984
1084.45 0.0307729
1091.79 0.0240494
1106.49 0.0161562
1121.19 0.0119776
1135.88 0.0100194
1139.56 0.0101586
1143.23 0.0114749
1145.07 0.0137060
1146.90 0.0204196
1147.82 0.0299399
1148.74 0.0570279
1149.20 0.0945634
1149.43 0.132024
1149.66 0.199837
1149.89 0.344109
1150.00 0.486275
1150.12 0.738925
1150.18 0.952105
1150.23 1.26713
1150.29 1.78172
1150.35 2.66826
1150.38 3.39811
1150.41 4.47358
1150.44 6.15129
1150.46 8.84894
1150.49 14.0178
1150.51 18.2666
1150.52 24.7228
1150.54 36.1254
1150.55 55.1052
1150.56 91.6310
1150.57 122.558
1150.58 174.142
1150.59 278.948
1150.60 347.906
1150.61 278.948
1150.62 174.143
1150.63 107.886
1150.64 70.2139
1150.66 48.4598
1150.67 35.1506
1150.68 26.5381
1150.69 20.6898
1150.71 13.5338
1150.73 9.51382
1150.75 7.04284
1150.80 4.29784
1150.84 2.89139
1150.89 2.07724
1150.93 1.56446
1150.97 1.22091
1151.06 0.803701
1151.15 0.569721
1151.33 0.330440
1151.50 0.216806
1151.68 0.154081
1152.03 0.0908172
1152.73 0.0448796
1153.44 0.0285822
1154.84 0.0167623
1156.25 0.0125312
1161.88 0.00815099
1173.14 0.00655296
1195.65 0.00562721
1218.16 0.00544709
1240.67 0.00588490
1263.19 0.00738070
1274.44 0.00900183
1285.70 0.0120119
1296.96 0.0184652
1302.58 0.0248845
1308.21 0.0365776
1311.03 0.0464303
1313.84 0.0614894
1316.65 0.0862124
1319.47 0.131098
1320.87 0.168757
1322.28 0.226032
1323.69 0.319366
1324.39 0.389889
1324.74 0.434375
1325.10 0.486862
1325.45 0.549768
1325.80 0.625819
1326.15 0.718948
1326.50 0.834302
1326.85 0.980453
1327.21 1.16884
1327.56 1.41742
1327.91 1.75365
1328.26 2.22703
1328.61 2.92116
1328.97 3.99698
1329.32 5.78552
1329.49 7.16649
1329.67 9.09974
1329.84 11.9170
1330.02 16.2329
1330.20 23.2752
1330.37 35.7152
1330.46 45.6718
1330.55 59.8417
1330.64 80.3492
1330.72 109.491
1330.86 175.233
1331.00 218.540
1331.14 174.685
1331.28 109.054
1331.41 68.4174
1331.54 45.1158
1331.68 31.4301
1331.81 22.9514
1331.94 17.4137
1332.08 13.6271
1332.34 8.97348
1332.61 6.32827
1332.87 4.69502
1333.40 2.87544
1333.94 1.93728
1334.47 1.39379
1335.00 1.05019
1335.53 0.820130
1336.59 0.540076
1337.66 0.382842
1338.72 0.285886
1339.78 0.221934
1341.91 0.145512
1344.03 0.103360
1346.16 0.0777019
1348.29 0.0609535
1352.54 0.0411976
1356.79 0.0305043
1365.29 0.0201311
1373.80 0.0157658
1382.30 0.0139435
1399.31 0.0142405
1416.32 0.0194745
1424.82 0.0255391
1433.33 0.0369700
1437.58 0.0466998
1441.83 0.0616011
1446.08 0.0860318
1450.33 0.130163
1451.40 0.146799
1452.46 0.166956
1453.52 0.191700
1454.59 0.222535
1455.12 0.240899
1455.65 0.261635
1456.18 0.285263
1456.71 0.312238
1457.24 0.343346
1457.77 0.379332
1458.84 0.470936
1459.90 0.600589
1460.96 0.792624
1462.03 1.09436
1462.56 1.31459
1463.09 1.60786
1463.62 2.01183
1464.15 2.58697
1464.68 3.44772
1465.22 4.80901
1465.75 7.14472
1466.01 8.98129
1466.28 11.5751
1466.54 15.4018
1466.81 21.2259
1467.08 30.4748
1467.34 45.1622
1467.67 72.2462
1468.00 90.2813
1468.33 72.2054
1468.66 45.1227
1468.90 31.6499
1469.14 22.7731
1469.37 16.9178
1469.61 12.9553
1470.09 8.19730
1470.56 5.60808
1471.04 4.06258
1471.52 3.07233
1472.47 1.92908
1473.42 1.32054
1474.37 0.959894
1475.32 0.729024
1476.27 0.572631
1478.18 0.380167
1480.08 0.270993
1481.99 0.203133
1483.89 0.158151
1487.70 0.104080
1491.50 0.0740854
1495.31 0.0557508
1499.12 0.0437447
1506.73 0.0295191
1514.34 0.0217745
1529.57 0.0141861
1544.80 0.0109091
1560.03 0.00944212
1590.48 0.00918790
1620.94 0.0118828
1636.16 0.0150665
1651.39 0.0209500
1666.62 0.0332492
1674.23 0.0451617
1681.85 0.0663173
1683.75 0.0742239
1685.65 0.0837647
1687.56 0.0954438
1688.51 0.102291
1689.46 0.109946
1690.41 0.118560
1691.36 0.128294
1692.32 0.139351
1693.27 0.151972
1695.17 0.183325
1697.07 0.226054
1698.98 0.286531
1700.88 0.376098
1702.78 0.517152
1703.74 0.620246
1704.69 0.757970
1705.64 0.948137
1706.59 1.22066
1707.54 1.63035
1708.49 2.28462
1709.45 3.42117
1709.92 4.32675
1710.40 5.62468
1710.87 7.56928
1711.35 10.6103
1711.83 15.5708
1712.30 23.7537
1712.85 38.0399
1713.40 47.5698
1713.95 38.0094
1714.50 23.7249
1714.93 16.1057
1715.37 11.2893
1715.80 8.22356
1716.24 6.20990
1717.10 3.85418
1717.97 2.60888
1718.84 1.87822
1719.71 1.41667
1721.44 0.890037
1723.18 0.614035
1724.91 0.452441
1728.38 0.282193
1731.85 0.201272
1735.32 0.159284
1742.26 0.130376
1749.20 0.150795
1752.67 0.186446
1754.41 0.215727
1756.14 0.257268
1757.01 0.284546
1757.88 0.317644
1758.31 0.336910
1758.74 0.358315
1759.18 0.382170
1759.61 0.408786
1760.04 0.438730
1760.48 0.472485
1760.91 0.510707
1761.35 0.554095
1762.21 0.661088
1763.08 0.804572
1763.95 1.00341
1764.82 1.28890
1765.68 1.71989
1766.55 2.41054
1766.98 2.92315
1767.42 3.61569
1767.85 4.57980
1768.29 5.96630
1768.72 8.05350
1769.15 11.3366
1769.59 16.7315
1770.02 25.6976
1770.51 40.9711
1771.00 51.0870
1771.50 40.7757
1771.99 25.4093
1772.34 17.9038
1772.69 12.9467
1773.04 9.65003
1773.39 7.41554
1774.09 4.71495
1774.79 3.23805
1775.50 2.35348
1776.20 1.78529
1777.60 1.12711
1779.00 0.776235
1780.40 0.567798
1783.21 0.343220
1786.01 0.231204
1788.81 0.167348
1791.62 0.127494
1794.42 0.100939
1800.03 0.0688447
1805.64 0.0509729
1816.85 0.0333102
1828.07 0.0268781
1833.68 0.0267564
1839.28 0.0296682
1844.89 0.0390340
1847.70 0.0494319
1850.50 0.0691276
1851.90 0.0859988
1853.30 0.111962
1854.71 0.154738
1856.11 0.232423
1856.81 0.297471
1857.51 0.396106
1858.21 0.556061
1858.91 0.840912
1859.26 1.07553
1859.61 1.42417
1859.79 1.66786
1859.96 1.97820
1860.14 2.38425
1860.31 2.92958
1860.40 3.27731
1860.49 3.69070
1860.67 4.78305
1860.84 6.43852
1860.93 7.61257
1861.02 9.11499
1861.10 11.1280
1861.19 13.8356
1861.28 17.6837
1861.37 23.2349
1861.45 31.8101
1861.54 45.4378
1861.63 68.7852
1861.72 108.731
1861.81 174.334
1861.90 217.433
1861.99 173.562
1862.09 108.711
1862.15 75.7523
1862.22 54.4681
1862.29 40.2776
1862.36 30.8496
1862.49 19.4692
1862.62 13.3326
1862.76 9.64461
1862.89 7.28651
1863.16 4.57456
1863.43 3.12883
1863.70 2.27574
1863.97 1.72937
1864.24 1.35877
1864.78 0.902370
1865.32 0.643408
1865.86 0.482527
1866.40 0.375968
1867.47 0.247562
1868.55 0.176283
1869.63 0.132569
1870.71 0.103873
1872.86 0.0696408
1875.02 0.0507421
1877.17 0.0391800
1879.33 0.0315675
1883.64 0.0224211
1887.95 0.0172819
1896.56 0.0118826
1905.18 0.00914315
1913.80 0.00749848
1931.04 0.00561147
1965.52 0.00387005
2000.00 0.00305757
2081.63 0.00230690
2163.26 0.00225839
2204.08 0.00247292
2244.90 0.00307434
2265.30 0.00382636
2275.51 0.00453735
2285.71 0.00579605
2295.92 0.00842752
2301.02 0.0110240
2306.12 0.0157456
2308.67 0.0197258
2311.22 0.0258177
2313.77 0.0358427
2316.32 0.0541131
2317.60 0.0695103
2318.87 0.0930018
2320.15 0.131523
2321.43 0.201147
2322.06 0.259365
2322.70 0.347542
2323.34 0.490385
2323.66 0.597610
2323.98 0.743935
2324.30 0.952414
2324.61 1.26280
2324.77 1.47901
2324.93 1.75390
2325.09 2.11303
2325.25 2.59451
2325.41 3.26549
2325.57 4.22533
2325.73 5.68600
2325.89 8.02491
2326.05 12.1571
2326.13 15.4915
2326.21 20.2672
2326.29 27.5937
2326.37 39.0964
2326.45 58.5335
2326.53 91.1390
2326.61 145.817
2326.70 182.263
2326.79 145.805
2326.87 91.1267
2326.97 53.7616
2327.06 33.9003
2327.16 22.9010
2327.25 16.4194
2327.35 12.2586
2327.44 9.47725
2327.63 6.14034
2327.82 4.28222
2328.01 3.15701
2328.39 1.91398
2328.77 1.28234
2329.15 0.918613
2329.53 0.690363
2329.91 0.538182
2330.66 0.353320
2331.42 0.250056
2332.18 0.186448
2332.94 0.144619
2334.45 0.0946463
2335.97 0.0671371
2337.48 0.0503936
2339.00 0.0394563
2342.03 0.0265180
2345.06 0.0194661
2351.12 0.0124660
2357.18 0.00927237
2363.24 0.00759344
2375.36 0.00607905
2399.60 0.00556030
2423.85 0.00636133
2448.09 0.00853956
2460.21 0.0106834
2472.33 0.0144815
2484.45 0.0223421
2490.51 0.0300050
2496.57 0.0437623
2499.60 0.0552279
2501.12 0.0629456
2502.63 0.0725781
2504.15 0.0848204
2505.66 0.100714
2507.18 0.121875
2507.94 0.135202
2508.69 0.150928
2509.45 0.169716
2510.21 0.192387
2510.97 0.220090
2511.73 0.254382
2512.48 0.297654
2513.24 0.353174
2514.00 0.426242
2514.76 0.524801
2515.51 0.662603
2516.27 0.862878
2517.03 1.17057
2517.79 1.67606
2518.54 2.59236
2518.92 3.35460
2519.30 4.49335
2519.68 6.29946
2520.06 9.35260
2520.44 14.9004
2520.82 25.3853
2521.16 40.6326
2521.50 50.7509
2521.84 40.5714
2522.19 25.3720
2522.57 14.8315
2522.95 9.29292
2523.33 6.25191
2523.71 4.45577
2524.09 3.32214
2524.47 2.56631
2525.23 1.65835
2526.00 1.15733
2526.76 0.853029
2528.28 0.518886
2529.80 0.349339
2531.33 0.251938
2532.85 0.190868
2534.37 0.150155
2537.42 0.100950
2540.47 0.0735810
2543.52 0.0568687
2546.56 0.0459786
2552.66 0.0332860
2558.75 0.0266942
2570.94 0.0213110
2583.13 0.0211748
2595.32 0.0265466
2601.41 0.0346101
2604.46 0.0425494
2607.51 0.0568402
2609.03 0.0687817
2610.55 0.0869095
2612.08 0.116504
2612.84 0.138910
2613.60 0.169824
2614.36 0.214326
2615.13 0.281668
2615.51 0.329138
2615.89 0.390691
2616.27 0.472504
2616.65 0.584209
2617.03 0.743292
2617.41 0.980163
2617.79 1.35505
2618.17 1.99972
2618.36 2.51323
2618.55 3.24915
2618.74 4.36912
2618.93 6.16712
2619.13 9.34766
2619.22 11.9035
2619.32 15.6199
2619.41 21.2666
2619.51 30.2856
2619.60 45.4206
2619.70 71.3337
2619.80 114.342
2619.90 142.637
2620.00 113.886
2620.11 71.3236
2620.21 43.9974
2620.31 28.6523
2620.41 19.7888
2620.51 14.3639
2620.62 10.8519
2620.72 8.46619
2620.92 5.54590
2621.13 3.90467
2621.33 2.89553
2621.74 1.77419
2622.15 1.19953
2622.55 0.866856
2622.96 0.657350
2623.37 0.517297
2624.18 0.346820
2625.00 0.251333
2625.82 0.192593
2626.63 0.153993
2628.26 0.108033
2629.89 0.0829540
2633.16 0.0583173
2636.42 0.0475685
2639.68 0.0424731
2641.32 0.0410721
2642.95 0.0401815
2646.21 0.0395100
2649.47 0.0399090
2652.74 0.0411109
2654.37 0.0419705
2656.00 0.0429903
2659.26 0.0455032
2662.52 0.0486598
2665.79 0.0525134
2669.05 0.0571576
2672.31 0.0627302
2678.84 0.0774983
2685.37 0.0993633
2691.89 0.133232
2698.42 0.189312
2701.68 0.232121
2704.94 0.291498
2708.21 0.376980
2711.47 0.505819
2714.73 0.711345
2718.00 1.06275
2721.26 1.71207
2722.89 2.23914
2724.52 2.97130
2727.36 4.74503
2730.20 5.92000
2733.05 4.72925
2735.89 2.95443
2737.64 2.17971
2739.40 1.63678
2742.91 0.990080
2746.41 0.652099
2749.92 0.459129
2753.43 0.340251
2756.93 0.262510
2763.95 0.171200
2770.96 0.122421
2777.98 0.0941138
2792.01 0.0672516
2806.03 0.0633165
2813.05 0.0702847
2820.06 0.0880374
2827.08 0.129626
2830.59 0.170832
2832.34 0.201539
2833.22 0.220681
2834.09 0.243073
2834.97 0.269537
2835.85 0.301065
2836.29 0.319154
2836.72 0.339005
2837.16 0.360901
2837.60 0.385128
2838.48 0.442062
2839.35 0.513320
2840.23 0.604049
2841.11 0.721741
2841.98 0.878373
2842.86 1.09246
2843.74 1.39489
2844.61 1.83876
2845.49 2.52336
2846.37 3.63789
2847.24 5.55736
2847.68 7.01662
2848.12 8.94545
2849.01 14.2768
2849.90 17.8151
2850.80 14.2330
2851.69 8.88376
2852.33 6.25453
2852.97 4.51598
2853.60 3.36519
2854.24 2.58511
2855.52 1.64374
2856.79 1.13009
2858.07 0.822489
2859.34 0.625174
2861.89 0.396646
2864.44 0.274754
2867.00 0.202303
2872.10 0.124125
2877.20 0.0849729
2882.30 0.0625352
2892.50 0.0389447
2902.71 0.0272940
2912.91 0.0206007
2933.31 0.0134554
2953.72 0.00982771
2974.13 0.00769853
3014.94 0.00543253
3055.75 0.00445456
3096.56 0.00445145
3116.97 0.00517967
3127.17 0.00604314
3137.37 0.00771223
3147.58 0.0113908
3152.68 0.0150988
3157.78 0.0218921
3160.33 0.0276319
3162.88 0.0364115
3165.43 0.0508215
3167.98 0.0769260
3169.26 0.0987919
3170.53 0.131931
3171.81 0.185709
3173.08 0.281607
3173.72 0.360653
3174.36 0.478688
3174.68 0.560849
3175.00 0.666210
3175.32 0.804371
3175.63 0.989759
3175.95 1.24832
3176.11 1.41780
3176.27 1.62270
3176.43 1.87691
3176.59 2.19316
3176.75 2.59574
3176.91 3.11869
3177.07 3.81937
3177.23 4.77291
3177.39 6.13223
3177.55 8.12479
3177.71 11.2311
3177.87 16.2923
3178.02 25.0815
3178.18 40.7894
3178.34 65.2796
3178.50 81.4401
3178.66 65.1076
3178.82 40.6535
3178.93 28.4752
3179.05 20.4668
3179.16 15.1926
3179.28 11.6531
3179.51 7.37826
3179.74 5.05029
3179.97 3.65518
3180.19 2.76556
3180.65 1.73694
3181.11 1.18880
3181.57 0.864591
3182.03 0.656536
3182.49 0.515758
3183.40 0.342449
3184.32 0.244061
3185.24 0.182921
3186.15 0.142395
3187.99 0.0936094
3189.82 0.0665225
3191.66 0.0499449
3193.49 0.0390735
3197.16 0.0261417
3200.82 0.0190445
3204.49 0.0147348
3208.16 0.0119263
3215.49 0.00861426
3222.83 0.00681930
3237.50 0.00507186
3252.17 0.00433706
3266.84 0.00406066
3281.51 0.00426621
3288.84 0.00551927
3292.51 0.0104884
3294.35 0.0300498
3294.80 0.0500858
3295.26 0.106195
3295.49 0.182894
3295.72 0.394038
3295.84 0.677672
3295.95 1.42344
3296.01 2.39324
3296.04 3.29797
3296.06 4.75875
3296.09 7.57566
3296.11 9.90667
3296.12 13.4726
3296.14 19.8330
3296.15 30.5745
3296.16 51.7007
3296.17 69.9738
3296.18 101.039
3296.19 158.785
3296.20 201.837
3296.21 158.785
3296.22 101.039
3296.23 66.9077
3296.24 45.7884
3296.25 32.7536
3296.26 24.3784
3296.28 14.8394
3296.29 9.90693
3296.31 7.05873
3296.33 5.27514
3296.37 3.25896
3296.44 1.59486
3296.51 0.942879
3296.65 0.441895
3296.80 0.256324
3297.09 0.118854
3297.37 0.0694716
3298.52 0.0206146
3300.82 0.00815799
3305.43 0.00505856
3314.63 0.00441868
3333.05 0.00471373
3351.46 0.00551728
3369.87 0.00695068
3388.28 0.00969017
3397.49 0.0121403
3406.69 0.0162293
3415.90 0.0241756
3420.50 0.0315886
3425.11 0.0445170
3429.71 0.0709273
3432.01 0.0963843
3433.16 0.115439
3434.31 0.141509
3435.46 0.178652
3436.04 0.203476
3436.61 0.234192
3437.19 0.272980
3437.76 0.322763
3438.34 0.388258
3438.91 0.476853
3439.49 0.601091
3440.07 0.782220
3440.64 1.06142
3441.22 1.52389
3441.50 1.87848
3441.79 2.37205
3442.08 3.08600
3442.37 4.16429
3442.65 5.90402
3442.94 8.90112
3443.23 14.5509
3443.37 19.2142
3443.52 25.7235
3443.76 41.1453
3444.00 51.4229
3444.24 41.1384
3444.48 25.7171
3444.70 16.6100
3444.92 11.1973
3445.14 7.92607
3445.35 5.86420
3445.78 3.54188
3446.22 2.35667
3446.65 1.67675
3447.08 1.25459
3447.95 0.780006
3448.82 0.534098
3449.68 0.391178
3451.42 0.240537
3453.15 0.167509
3454.88 0.127245
3458.35 0.0882216
3461.81 0.0728046
3465.28 0.0680488
3468.74 0.0698519
3472.21 0.0772313
3473.94 0.0831943
3475.67 0.0909760
3477.41 0.100968
3479.14 0.113738
3480.01 0.121427
3480.87 0.130148
3481.74 0.140091
3482.60 0.151443
3483.47 0.164489
3484.34 0.179523
3485.20 0.196965
3486.07 0.217333
3487.80 0.269741
3489.54 0.344982
3491.27 0.458049
3493.00 0.638248
3493.87 0.771170
3494.73 0.949471
3495.60 1.19576
3496.47 1.54737
3497.33 2.06953
3498.20 2.87597
3499.06 4.17118
3499.93 6.27255
3500.97 10.0161
3502.00 12.5019
3503.04 9.98895
3504.08 6.23460
3505.30 3.54160
3506.52 2.17726
3507.74 1.44706
3508.96 1.02315
3510.18 0.758600
3511.40 0.583892
3513.84 0.375756
3516.28 0.261760
3518.72 0.192891
3523.60 0.117526
3528.48 0.0794131
3533.36 0.0575250
3538.25 0.0438028
3543.13 0.0346415
3552.89 0.0235535
3562.65 0.0173699
3582.17 0.0111380
3601.69 0.00832712
3621.22 0.00697330
3660.26 0.00640376
3699.31 0.00809353
3718.83 0.0103199
3738.35 0.0145900
3748.11 0.0182175
3757.87 0.0237255
3767.63 0.0326203
3772.52 0.0392601
3774.96 0.0434135
3777.40 0.0482962
3779.84 0.0540909
3781.06 0.0573999
3782.28 0.0610318
3783.50 0.0650332
3784.72 0.0694482
3785.94 0.0743394
3787.16 0.0797777
3788.38 0.0858526
3789.60 0.0926551
3792.04 0.108972
3794.48 0.130070
3796.92 0.157998
3799.36 0.196040
3801.80 0.249609
3804.24 0.328313
3806.68 0.450231
3809.12 0.652437
3810.34 0.806297
3811.56 1.01806
3812.78 1.31774
3814.00 1.75390
3815.22 2.40281
3816.44 3.36702
3818.22 5.38698
3820.00 6.73124
3821.78 5.38049
3823.56 3.36077
3824.83 2.36693
3826.10 1.70893
3827.36 1.27302
3828.63 0.976962
3831.17 0.620166
3833.70 0.425350
3836.24 0.308728
3838.77 0.233907
3843.85 0.147299
3848.92 0.101185
3853.99 0.0738359
3859.06 0.0563184
3864.13 0.0444390
3874.27 0.0298416
3884.42 0.0215768
3894.56 0.0164724
3904.70 0.0131324
3924.99 0.00934377
3945.27 0.00802136
3955.41 0.00859488
3960.48 0.00962262
3965.56 0.0118132
3970.63 0.0168812
3973.16 0.0220835
3975.70 0.0316856
3976.97 0.0398293
3978.23 0.0523083
3979.50 0.0728159
3980.77 0.109976
3981.40 0.141106
3982.04 0.188324
3982.67 0.264953
3983.31 0.401598
3983.62 0.514111
3983.94 0.682034
3984.26 0.948620
3984.57 1.40906
3984.73 1.77761
3984.89 2.30741
3985.05 3.11899
3985.13 3.68972
3985.21 4.43045
3985.29 5.42915
3985.37 6.77934
3985.45 8.68684
3985.52 11.4912
3985.60 15.8153
3985.68 22.8627
3985.72 28.1593
3985.76 35.0220
3985.80 44.4314
3985.84 56.5801
3985.92 90.5246
3986.00 113.152
3986.08 90.5205
3986.16 56.5761
3986.23 37.7794
3986.29 26.2682
3986.36 18.9288
3986.42 14.2241
3986.55 8.74350
3986.68 5.88970
3986.81 4.21243
3986.94 3.16321
3987.21 1.96391
3987.47 1.33556
3987.73 0.966598
3987.99 0.731894
3988.25 0.573498
3988.77 0.379432
3989.29 0.270049
3989.82 0.202286
3990.34 0.157428
3991.38 0.103568
3992.43 0.0737514
3993.47 0.0555024
3994.52 0.0435442
3996.61 0.0293114
3998.69 0.0214790
4002.87 0.0135710
4007.05 0.00982922
4011.23 0.00774579
4019.58 0.00558622
4036.30 0.00387542
4053.01 0.00316098
4086.43 0.00254654
4119.85 0.00237479
4153.28 0.00256828
4169.99 0.00290045
4186.70 0.00358298
4203.41 0.00511855
4211.77 0.00667318
4220.12 0.00952444
4224.30 0.0119345
4228.48 0.0156226
4232.66 0.0216807
4236.83 0.0326730
4238.92 0.0418900
4241.01 0.0558936
4243.10 0.0786771
4245.19 0.119462
4247.28 0.203710
4248.32 0.284425
4248.84 0.344118
4249.37 0.424837
4249.89 0.537962
4250.15 0.612095
4250.41 0.702636
4250.67 0.814775
4250.93 0.955909
4251.19 1.13687
4251.46 1.37397
4251.72 1.69272
4251.98 2.13459
4252.24 2.77038
4252.50 3.72794
4252.76 5.25386
4253.02 7.85863
4253.15 9.88401
4253.28 12.6595
4253.41 16.5662
4253.54 21.9423
4253.77 35.1131
4254.00 43.8306
4254.23 35.0471
4254.46 21.8899
4254.62 15.4513
4254.78 11.1975
4254.94 8.36533
4255.10 6.43403
4255.43 4.09105
4255.75 2.81076
4256.07 2.04035
4256.39 1.54658
4257.04 0.973725
4257.68 0.667628
4258.33 0.485847
4258.97 0.369305
4259.62 0.290302
4260.91 0.192904
4262.20 0.137598
4263.49 0.103178
4264.77 0.0803502
4267.35 0.0528804
4269.93 0.0376244
4272.51 0.0282880
4275.09 0.0221670
4280.25 0.0148957
4285.41 0.0109164
4295.72 0.00696101
4306.04 0.00517055
4316.35 0.00426841
4326.67 0.00390061
4331.82 0.00425900
4334.40 0.00620940
4335.69 0.0140675
4336.34 0.0445751
4336.66 0.158434
4336.82 0.555231
4336.90 1.78305
4336.94 4.71545
4336.96 9.64004
4336.97 15.1219
4336.98 25.5358
4336.99 41.5127
4337.00 51.0005
4337.01 41.5128
4337.02 25.5359
4337.03 17.5430
4337.03 11.9689
4337.05 6.33494
4337.08 2.61686
4337.14 0.872218
4337.27 0.255745
4337.52 0.0715329
4338.01 0.0211510
4339.00 0.00796261
4340.99 0.00457800
4344.96 0.00370538
4352.90 0.00351002
4368.79 0.00374426
4384.67 0.00444594
4400.56 0.00591215
4416.44 0.00917719
4424.39 0.0124500
4432.33 0.0183984
4436.30 0.0233855
4440.27 0.0309562
4444.24 0.0432612
4448.21 0.0652573
4452.18 0.110596
4453.18 0.129559
4454.17 0.153924
4455.16 0.185948
4456.15 0.229149
4456.65 0.256716
4457.15 0.289516
4457.64 0.329126
4458.14 0.377350
4458.64 0.437117
4459.13 0.512067
4459.63 0.607958
4460.13 0.733280
4460.62 0.901614
4461.12 1.13366
4461.62 1.46667
4462.11 1.96411
4462.61 2.75173
4463.10 4.07727
4463.35 5.09104
4463.60 6.47616
4463.85 8.38694
4464.10 11.0026
4464.55 17.6020
4465.00 21.9993
4465.45 17.5975
4465.90 10.9983
4466.26 7.44397
4466.62 5.20888
4466.98 3.78865
4467.34 2.85528
4468.06 1.76668
4468.78 1.19233
4469.50 0.855567
4470.22 0.642956
4471.65 0.400228
4473.09 0.272748
4474.53 0.197779
4475.96 0.150045
4477.40 0.117828
4480.27 0.0783621
4483.15 0.0560682
4486.02 0.0422593
4488.89 0.0331307
4494.64 0.0222036
4500.39 0.0161840
4506.13 0.0125412
4511.88 0.0101914
4523.38 0.00751327
4534.87 0.00621472
4557.86 0.00556803
4580.85 0.00685804
4592.34 0.00864772
4603.83 0.0121364
4609.58 0.0151347
4615.33 0.0197357
4621.08 0.0272707
4626.82 0.0408214
4629.70 0.0520572
4632.57 0.0689214
4635.44 0.0959153
4636.88 0.115938
4638.32 0.143045
4639.04 0.160379
4639.75 0.181062
4640.47 0.206085
4641.19 0.236657
4641.91 0.274649
4642.63 0.322509
4643.35 0.384032
4644.06 0.464899
4644.78 0.574213
4645.50 0.726327
4646.22 0.946987
4646.94 1.28186
4647.66 1.82297
4648.37 2.76213
4648.73 3.50177
4649.09 4.53916
4649.45 6.01494
4649.81 8.10245
4650.41 12.9619
4651.00 16.1993
4651.60 12.9576
4652.19 8.09836
4652.58 5.84358
4652.98 4.30796
4653.76 2.53499
4654.55 1.63698
4655.34 1.13546
4656.12 0.830223
4656.91 0.632386
4658.48 0.400788
4660.06 0.276215
4661.63 0.201813
4664.77 0.121322
4667.92 0.0810867
4671.07 0.0581626
4674.21 0.0438873
4677.36 0.0344103
4683.65 0.0230198
4689.94 0.0167317
4696.23 0.0129429
4702.52 0.0105447
4715.11 0.00812114
4727.69 0.00825146
4733.98 0.0102034
4737.13 0.0124857
4740.27 0.0168825
4741.85 0.0206817
4743.42 0.0265584
4744.99 0.0362923
4746.57 0.0540821
4747.35 0.0690765
4748.14 0.0919085
4748.93 0.129258
4749.71 0.196396
4750.11 0.252344
4750.50 0.336411
4750.89 0.471492
4751.29 0.708918
4751.68 1.18515
4751.88 1.62812
4752.07 2.36855
4752.17 2.94928
4752.27 3.76011
4752.37 4.95105
4752.46 6.79526
4752.51 8.14830
4752.56 9.89182
4752.61 12.2315
4752.66 15.4527
4752.71 20.0133
4752.76 26.6551
4752.81 36.5459
4752.86 51.4441
4752.93 82.4232
4753.00 102.882
4753.07 82.4205
4753.14 51.4414
4753.19 37.7964
4753.23 28.3607
4753.32 17.1168
4753.41 11.2371
4753.50 7.87633
4753.58 5.78404
4753.67 4.43000
4753.85 2.82835
4754.03 1.95377
4754.20 1.43131
4754.55 0.860965
4754.91 0.574379
4755.26 0.410516
4755.61 0.308182
4755.97 0.240202
4756.67 0.157891
4757.38 0.112067
4758.08 0.0838945
4758.79 0.0653928
4760.20 0.0433147
4761.61 0.0311477
4763.02 0.0237311
4764.43 0.0188735
4767.25 0.0130953
4770.08 0.00990738
4775.72 0.00666501
4781.36 0.00510899
4787.01 0.00423019
4798.30 0.00331004
4820.87 0.00263336
4843.45 0.00252658
4866.02 0.00284773
4877.31 0.00327504
4888.60 0.00408740
4899.89 0.00580589
4905.53 0.00747782
4911.18 0.0104607
4916.82 0.0166749
4919.64 0.0227509
4922.46 0.0336808
4923.87 0.0428024
4925.29 0.0566368
4926.70 0.0791417
4928.11 0.119519
4929.52 0.203445
4930.22 0.284540
4930.93 0.426963
4931.28 0.542820
4931.64 0.713547
4931.99 0.979961
4932.16 1.17231
4932.34 1.42722
4932.52 1.77709
4932.69 2.26860
4932.87 2.99778
4933.05 4.12684
4933.22 6.02363
4933.31 7.47016
4933.40 9.47247
4933.49 12.3265
4933.58 16.5182
4933.66 22.8248
4933.75 32.3144
4933.88 51.7818
4934.00 64.6203
4934.13 51.6127
4934.25 32.3115
4934.36 21.1508
4934.47 14.4038
4934.57 10.2685
4934.68 7.64467
4934.90 4.64738
4935.11 3.10125
4935.33 2.20653
4935.54 1.64990
4935.97 1.02103
4936.40 0.693166
4936.83 0.502058
4937.26 0.380662
4937.69 0.299187
4938.55 0.199783
4939.42 0.143980
4940.28 0.109697
4941.14 0.0872648
4942.86 0.0610697
4944.58 0.0475913
4946.30 0.0406508
4948.03 0.0378396
4951.47 0.0426189
4953.19 0.0522751
4954.91 0.0721353
4955.77 0.0894949
4956.64 0.116293
4957.50 0.160303
4958.36 0.239458
4959.22 0.403120
4959.65 0.559830
4960.08 0.831355
4960.19 0.931124
4960.30 1.05011
4960.51 1.36682
4960.73 1.85180
4960.83 2.19869
4960.94 2.64735
4961.05 3.25347
4961.16 4.08114
4961.26 5.27457
4961.37 7.03788
4961.48 9.83699
4961.59 14.4806
4961.64 18.0414
4961.69 22.8869
4961.75 29.5389
4961.80 38.4016
4961.90 61.4374
4962.00 76.7931
4962.10 61.4345
4962.20 38.3986
4962.27 26.6964
4962.35 19.0710
4962.42 14.0899
4962.50 10.7449
4962.64 6.76069
4962.79 4.62038
4962.94 3.33870
4963.09 2.52076
4963.38 1.58155
4963.68 1.08190
4963.97 0.787284
4964.27 0.598735
4964.56 0.470906
4965.15 0.313564
4965.74 0.224409
4966.34 0.168894
4966.93 0.132104
4968.11 0.0877395
4969.29 0.0630671
4970.47 0.0479153
4971.65 0.0379355
4974.01 0.0259965
4976.38 0.0193904
4981.10 0.0127106
4985.83 0.00962141
4990.55 0.00803641
5000.00 0.00696939
5010.67 0.00801602
5016.01 0.00979293
5021.35 0.0133826
5024.01 0.0165182
5026.68 0.0213757
5029.35 0.0294155
5032.02 0.0440682
5033.35 0.0563687
5034.69 0.0750602
5036.02 0.105457
5037.35 0.159801
5038.69 0.271775
5039.36 0.378669
5040.02 0.564163
5040.36 0.713052
5040.69 0.928774
5040.86 1.07566
5041.02 1.26013
5041.19 1.49604
5041.36 1.80205
5041.52 2.21390
5041.69 2.78191
5041.86 3.59377
5042.02 4.79677
5042.19 6.69892
5042.36 9.88786
5042.44 12.3307
5042.52 15.6128
5042.61 20.1067
5042.69 26.2099
5042.85 41.9337
5043.00 52.4147
5043.16 41.9306
5043.31 26.2069
5043.41 19.3038
5043.50 14.5122
5043.69 8.76159
5043.88 5.75269
5044.07 4.03937
5044.26 2.97537
5044.46 2.27761
5044.84 1.45458
5045.22 1.00606
5045.60 0.737068
5046.36 0.443755
5047.13 0.296263
5047.89 0.211890
5048.65 0.159182
5049.41 0.124116
5050.94 0.0817227
5052.47 0.0580887
5053.99 0.0435816
5055.52 0.0340469
5058.57 0.0226741
5061.62 0.0164137
5064.67 0.0126029
5067.72 0.0101130
5073.82 0.00716887
5079.93 0.00557080
5092.13 0.00403327
5104.34 0.00347198
5116.54 0.00358775
5122.65 0.00414916
5128.75 0.00596892
5134.85 0.0160039
5136.38 0.0263439
5137.90 0.0555268
5138.67 0.0958016
5139.43 0.208271
5139.81 0.361460
5140.00 0.511670
5140.19 0.778411
5140.38 1.33012
5140.48 1.85333
5140.57 2.75821
5140.67 4.55453
5140.72 6.18743
5140.76 8.79917
5140.81 13.5843
5140.84 17.5455
5140.86 23.1518
5140.88 32.2476
5140.91 47.4090
5140.93 74.3913
5140.95 122.736
5140.98 195.518
5141.00 245.480
5141.02 195.516
5141.05 122.735
5141.07 77.4760
5141.09 51.7808
5141.11 35.8638
5141.13 26.4264
5141.15 19.9468
5141.17 15.7127
5141.22 10.3397
5141.26 7.29647
5141.30 5.41559
5141.39 3.31551
5141.48 2.23442
5141.56 1.60674
5141.73 0.947369
5141.90 0.622889
5142.08 0.441578
5142.42 0.255097
5143.10 0.117367
5143.79 0.0678958
5145.16 0.0319749
5146.53 0.0192515
5152.02 0.00695534
5163.00 0.00443032
5173.98 0.00709222
5179.47 0.0196411
5180.84 0.0325957
5182.21 0.0691469
5182.90 0.119464
5183.58 0.259474
5183.92 0.448911
5184.10 0.634373
5184.27 0.962167
5184.44 1.63612
5184.53 2.27508
5184.61 3.35833
5184.70 5.47646
5184.74 7.36925
5184.78 10.4245
5184.83 15.7999
5184.87 26.4599
5184.89 36.3525
5184.91 51.4528
5184.93 76.5357
5184.95 121.123
5184.98 194.010
5185.00 241.992
5185.02 194.008
5185.05 120.861
5185.06 83.0167
5185.08 58.4017
5185.10 42.6413
5185.12 32.7036
5185.15 20.2622
5185.19 13.8114
5185.22 9.89649
5185.26 7.48025
5185.33 4.69196
5185.40 3.19506
5185.47 2.31367
5185.61 1.37686
5185.75 0.909789
5185.90 0.647212
5186.18 0.375179
5186.46 0.245002
5186.74 0.172809
5187.31 0.0997089
5188.44 0.0464266
5189.57 0.0274838
5191.84 0.0138231
5194.10 0.00901640
5203.16 0.00443563
5212.21 0.00372390
5221.27 0.00364193
5239.38 0.00412498
5257.49 0.00533850
5275.60 0.00799519
5284.65 0.0106037
5293.71 0.0152821
5298.23 0.0191720
5302.76 0.0250473
5307.29 0.0345561
5311.82 0.0514805
5314.08 0.0654169
5316.34 0.0862317
5317.48 0.100728
5318.61 0.119328
5319.74 0.143740
5320.87 0.176622
5322.00 0.222470
5323.14 0.289008
5324.27 0.390721
5325.40 0.556993
5325.96 0.682793
5326.53 0.855836
5327.10 1.10234
5327.66 1.46873
5328.23 2.04211
5328.79 2.99606
5329.36 4.69031
5329.93 7.80094
5330.46 12.4835
5331.00 15.5958
5331.54 12.4710
5332.08 7.79791
5332.60 4.85991
5333.12 3.19148
5333.64 2.21581
5334.17 1.61535
5334.69 1.22374
5335.21 0.957179
5336.25 0.629412
5337.30 0.444259
5338.34 0.330131
5340.43 0.203079
5342.52 0.137817
5344.61 0.100032
5346.70 0.0762399
5348.79 0.0603188
5352.97 0.0410503
5357.15 0.0303477
5365.50 0.0196914
5373.86 0.0150446
5382.22 0.0129773
5398.93 0.0127680
5415.65 0.0171236
5424.01 0.0222797
5432.36 0.0318758
5436.54 0.0398896
5438.63 0.0452530
5440.72 0.0519006
5442.81 0.0602731
5444.90 0.0710019
5445.94 0.0775385
5446.99 0.0850560
5448.03 0.0937768
5449.08 0.103949
5450.12 0.115935
5451.17 0.130174
5453.26 0.167992
5455.34 0.225315
5456.39 0.265731
5457.43 0.317996
5458.48 0.387281
5459.52 0.481554
5460.57 0.613993
5461.61 0.807049
5462.66 1.10202
5463.70 1.57564
5464.75 2.37803
5465.79 3.76507
5466.90 6.02186
5468.00 7.52478
5469.11 6.01871
5470.21 3.76201
5470.94 2.71697
5471.67 2.00392
5473.13 1.17984
5474.59 0.762790
5476.05 0.529616
5477.50 0.387732
5478.96 0.295642
5481.88 0.187928
5484.80 0.129954
5487.72 0.0953329
5493.55 0.0578594
5499.39 0.0391194
5505.22 0.0284383
5511.06 0.0217853
5516.89 0.0173677
5528.56 0.0120609
5540.23 0.00913530
5563.57 0.00625731
5586.91 0.00505791
5610.25 0.00465447
5633.59 0.00518647
5639.42 0.00587629
5645.26 0.00781843
5648.17 0.0104936
5651.09 0.0180168
5652.55 0.0283962
5654.01 0.0574186
5654.74 0.0970769
5655.10 0.136085
5655.47 0.205843
5655.83 0.350774
5656.01 0.489623
5656.20 0.732047
5656.38 1.21706
5656.47 1.66045
5656.56 2.39694
5656.65 3.74979
5656.70 4.90723
5656.74 6.62976
5656.79 9.47837
5656.83 14.3334
5656.88 23.7830
5656.90 31.7170
5656.93 42.7419
5656.96 68.5711
5657.00 85.4855
5657.04 68.5699
5657.07 42.7412
5657.10 31.3085
5657.12 23.2196
5657.17 13.9113
5657.22 9.09109
5657.26 6.35330
5657.31 4.67128
5657.36 3.57130
5657.45 2.27482
5657.55 1.56672
5657.64 1.14722
5657.83 0.690932
5658.02 0.460761
5658.21 0.330015
5658.58 0.193925
5658.96 0.128122
5659.33 0.0915600
5660.09 0.0543275
5661.59 0.0270800
5663.10 0.0173747
5666.11 0.0103924
5669.12 0.00796856
5681.17 0.00586353
5705.27 0.00623315
5729.37 0.00783067
5753.47 0.0109255
5765.52 0.0135120
5771.55 0.0152413
5777.57 0.0173827
5780.59 0.0186498
5783.60 0.0200762
5786.61 0.0216910
5789.62 0.0235272
5792.64 0.0256284
5795.65 0.0280464
5798.66 0.0308487
5801.67 0.0341210
5804.68 0.0379754
5807.70 0.0425548
5810.71 0.0480559
5813.72 0.0547374
5816.73 0.0629658
5819.75 0.0732462
5822.76 0.0863236
5825.77 0.103285
5828.78 0.125821
5831.80 0.156586
5834.81 0.200027
5837.82 0.263803
5840.83 0.362043
5843.85 0.521814
5846.86 0.796763
5849.87 1.28256
5852.94 2.04915
5856.00 2.55838
5859.07 2.04509
5862.14 1.27790
5864.14 0.927228
5866.14 0.686452
5870.14 0.406771
5874.13 0.264303
5878.13 0.184317
5882.13 0.135558
5886.13 0.103875
5894.12 0.0667789
5902.12 0.0468471
5910.11 0.0349878
5926.10 0.0223102
5942.09 0.0162017
5958.08 0.0130001
5990.06 0.0107383
6022.04 0.0121343
6038.03 0.0146607
6054.02 0.0196629
6062.02 0.0239031
6066.01 0.0267470
6070.01 0.0302685
6074.01 0.0346937
6076.01 0.0373413
6078.01 0.0403460
6080.00 0.0437774
6082.00 0.0477164
6084.00 0.0522669
6086.00 0.0575574
6088.00 0.0637616
6090.00 0.0710960
6092.00 0.0798487
6094.00 0.0903992
6095.99 0.103282
6097.99 0.119218
6099.99 0.139235
6101.99 0.164807
6103.99 0.198175
6105.99 0.242723
6107.99 0.303823
6109.99 0.390237
6111.98 0.516991
6113.98 0.710053
6115.98 1.01426
6117.98 1.49668
6120.49 2.39267
6123.00 2.98900
6125.51 2.39016
6128.02 1.49430
6129.56 1.10547
6131.09 0.832048
6134.16 0.504940
6137.23 0.333236
6140.30 0.234895
6143.37 0.174116
6146.44 0.134222
6152.58 0.0870712
6158.72 0.0614874
6164.86 0.0461660
6177.14 0.0296768
6189.41 0.0216749
6201.69 0.0174618
6226.25 0.0145026
6250.81 0.0165085
6263.09 0.0200582
6275.37 0.0270703
6287.64 0.0418603
6290.71 0.0479944
6292.25 0.0516538
6293.78 0.0557995
6295.32 0.0605190
6296.85 0.0659208
6298.39 0.0721400
6299.92 0.0793417
6301.46 0.0877516
6302.99 0.0976438
6304.53 0.109381
6306.06 0.123443
6307.60 0.140474
6309.13 0.161352
6310.67 0.187296
6312.20 0.220015
6313.74 0.262061
6315.27 0.317142
6316.81 0.390942
6318.34 0.492262
6319.88 0.635401
6321.41 0.843106
6322.95 1.15095
6324.48 1.60597
6326.74 2.56542
6329.00 3.20312
6331.26 2.56297
6333.52 1.60353
6334.95 1.17547
6336.37 0.877707
6339.22 0.526303
6342.08 0.344452
6344.93 0.241262
6347.78 0.177871
6350.63 0.136431
6356.33 0.0876032
6362.04 0.0611361
6367.74 0.0452431
6379.15 0.0279400
6390.56 0.0192220
6401.96 0.0142175
6424.78 0.00897706
6447.59 0.00642790
6470.40 0.00500478
6516.03 0.00360319
6561.66 0.00309500
6607.28 0.00323103
6630.10 0.00375475
6641.51 0.00431551
6652.91 0.00534740
6664.32 0.00753717
6670.02 0.00969872
6675.73 0.0136099
6678.58 0.0168881
6681.43 0.0218753
6684.28 0.0300140
6687.13 0.0446612
6688.56 0.0568529
6689.98 0.0752471
6691.41 0.104895
6692.84 0.157207
6693.55 0.199895
6694.26 0.263018
6694.97 0.361981
6695.33 0.434098
6695.69 0.529859
6696.04 0.661577
6696.40 0.848356
6696.76 1.12701
6697.11 1.56480
6697.29 1.88576
6697.47 2.31048
6697.65 2.89020
6697.83 3.70550
6698.00 4.89138
6698.18 6.67882
6698.36 9.45742
6698.54 13.7969
6698.77 22.0584
6699.00 27.5591
6699.23 22.0184
6699.46 13.7653
6699.66 9.09601
6699.86 6.24041
6700.05 4.47311
6700.25 3.33488
6700.64 2.03516
6701.03 1.36262
6701.42 0.972351
6701.81 0.727705
6702.60 0.451123
6703.38 0.306720
6704.16 0.222306
6704.95 0.168716
6705.73 0.132606
6707.30 0.0884832
6708.86 0.0636150
6710.43 0.0482459
6712.00 0.0381026
6715.13 0.0259744
6718.26 0.0193084
6724.53 0.0126849
6730.80 0.00972692
6737.07 0.00827726
6749.60 0.00740557
6762.13 0.00818934
6768.40 0.00933190
6774.67 0.0114421
6780.93 0.0157510
6784.07 0.0198601
6787.20 0.0271164
6790.33 0.0421320
6791.90 0.0567401
6793.47 0.0828344
6795.03 0.137003
6795.82 0.189258
6796.60 0.281218
6796.99 0.356111
6797.38 0.466629
6797.78 0.639434
6798.17 0.930517
6798.36 1.15809
6798.56 1.48055
6798.76 1.95795
6798.95 2.70041
6799.15 3.95396
6799.24 4.92151
6799.34 6.27041
6799.44 8.21044
6799.54 11.0921
6799.64 15.4882
6799.73 22.1200
6799.87 35.3984
6800.00 44.1454
6800.13 35.2913
6800.27 22.0361
6800.37 15.2681
6800.47 10.8785
6800.57 8.02218
6800.67 6.12552
6800.87 3.85483
6801.07 2.62982
6801.27 1.89985
6801.46 1.43675
6801.86 0.903507
6802.26 0.620431
6802.66 0.453543
6803.46 0.274640
6804.25 0.185958
6805.05 0.135833
6805.85 0.104853
6806.64 0.0844660
6808.24 0.0602781
6809.83 0.0472934
6813.02 0.0352999
6816.20 0.0312810
6819.39 0.0310151
6825.76 0.0379744
6832.13 0.0579461
6833.73 0.0666638
6835.32 0.0779222
6836.91 0.0927424
6838.51 0.112719
6839.30 0.125405
6840.10 0.140479
6840.90 0.158567
6841.69 0.180484
6842.49 0.207446
6843.29 0.241009
6844.08 0.283590
6844.88 0.338516
6845.68 0.411140
6846.47 0.509599
6847.27 0.647274
6848.07 0.846653
6848.86 1.14884
6849.66 1.62840
6850.46 2.42852
6851.25 3.78461
6852.13 6.05313
6853.00 7.56171
6853.87 6.04831
6854.75 3.78040
6855.55 2.42038
6856.35 1.62167
6857.15 1.14292
6857.95 0.841874
6859.54 0.505913
6861.14 0.335664
6862.74 0.238485
6864.34 0.178164
6867.54 0.110479
6870.73 0.0754578
6873.93 0.0550594
6877.13 0.0421555
6880.32 0.0334845
6886.72 0.0229185
6893.11 0.0169824
6905.90 0.0109308
6918.68 0.00811553
6931.47 0.00664504
6957.04 0.00547748
6982.62 0.00561203
7008.19 0.00736411
7020.98 0.00990324
7027.37 0.0123756
7033.77 0.0167807
7040.16 0.0259317
7046.55 0.0506846
7048.15 0.0637775
7049.75 0.0833787
7051.35 0.114685
7052.15 0.137880
7052.95 0.169287
7053.75 0.213350
7054.54 0.277692
7054.94 0.321676
7055.34 0.377012
7055.74 0.448326
7056.14 0.541831
7056.54 0.668352
7056.94 0.844185
7057.34 1.09950
7057.74 1.48643
7058.14 2.11222
7058.54 3.19667
7058.74 4.05269
7058.94 5.25373
7059.14 6.96282
7059.34 9.36643
7059.67 14.9754
7060.00 18.7110
7060.33 14.9556
7060.66 9.35071
7061.03 5.45695
7061.40 3.42010
7061.77 2.30214
7062.14 1.64193
7062.51 1.22436
7062.88 0.946855
7063.62 0.613454
7064.36 0.429276
7065.09 0.317597
7066.57 0.194864
7068.05 0.132698
7069.53 0.0970149
7072.48 0.0598781
7075.43 0.0420768
7078.39 0.0323277
7084.29 0.0229333
7090.20 0.0192454
7096.11 0.0181207
7107.92 0.0203726
7113.83 0.0237234
7119.74 0.0292978
7122.69 0.0333373
7125.64 0.0386043
7128.60 0.0455963
7130.08 0.0499669
7131.55 0.0550908
7133.03 0.0611539
7134.51 0.0683886
7135.98 0.0771101
7137.46 0.0877468
7138.94 0.100893
7140.41 0.117390
7141.89 0.138461
7143.37 0.165916
7144.84 0.202615
7146.32 0.253082
7147.80 0.324938
7149.27 0.431562
7150.75 0.598300
7152.23 0.875193
7153.70 1.36563
7154.44 1.74830
7155.18 2.26406
7156.59 3.61789
7158.00 4.51871
7159.41 3.61603
7160.82 2.26223
7161.77 1.62513
7162.72 1.19296
7163.67 0.900450
7164.62 0.698330
7166.51 0.450271
7168.41 0.312380
7170.31 0.228824
7172.21 0.174768
7176.00 0.111675
7179.80 0.0778152
7183.59 0.0576349
7191.18 0.0358496
7198.77 0.0249971
7206.36 0.0188478
7221.54 0.0125620
7236.73 0.00966522
7251.91 0.00819379
7282.27 0.00713639
7312.63 0.00737270
7342.99 0.00871236
7358.17 0.0101135
7365.76 0.0112347
7373.35 0.0129701
7377.15 0.0142810
7380.95 0.0161511
7384.74 0.0190447
7388.54 0.0240571
7390.43 0.0281606
7392.33 0.0343216
7394.23 0.0442873
7396.13 0.0621095
7398.02 0.0992303
7398.97 0.135225
7399.92 0.198833
7400.40 0.250946
7400.87 0.328056
7401.34 0.449682
7401.82 0.656754
7402.29 1.05409
7402.53 1.40384
7402.77 1.96031
7403.00 2.91894
7403.24 4.75792
7403.36 6.36737
7403.48 8.83070
7403.60 12.8146
7403.72 19.2121
7403.86 30.7744
7404.00 38.4101
7404.14 30.6868
7404.29 19.2108
7404.40 12.7713
7404.52 8.80400
7404.64 6.33383
7404.76 4.73570
7405.00 2.90267
7405.24 1.95134
7405.47 1.39669
7405.71 1.04842
7405.95 0.816108
7406.19 0.654287
7406.66 0.448010
7407.14 0.327417
7407.61 0.250807
7408.09 0.199165
7409.04 0.136040
7409.99 0.100488
7411.89 0.0641043
7413.79 0.0469075
7415.69 0.0375518
7419.50 0.0284737
7427.10 0.0230007
7434.71 0.0224737
7442.31 0.0237447
7449.92 0.0261454
7457.52 0.0296114
7465.13 0.0343582
7472.73 0.0408672
7480.34 0.0500210
7487.94 0.0634762
7495.55 0.0845784
7503.16 0.120927
7510.76 0.192796
7514.56 0.258791
7518.37 0.367767
7522.17 0.561287
7525.97 0.919882
7529.49 1.44552
7531.24 1.69299
7533.00 1.79765
7536.52 1.45725
7540.04 0.945949
7542.02 0.741692
7543.99 0.596004
7545.97 0.493814
7547.95 0.422389
7549.93 0.372686
7551.90 0.338630
7555.86 0.302800
7559.81 0.296768
7563.76 0.313330
7567.72 0.350556
7571.67 0.408887
7576.00 0.496812
7580.34 0.601228
7589.00 0.730216
7593.34 0.684928
7597.67 0.582907
7606.34 0.368792
7612.98 0.257293
7619.63 0.186021
7626.27 0.140761
7632.91 0.112273
7639.56 0.0965526
7646.20 0.0975424
7649.52 0.113647
7651.18 0.132506
7652.84 0.168157
7654.50 0.243283
7655.33 0.314931
7656.16 0.437581
7657.00 0.672853
7657.41 0.879694
7657.83 1.20776
7658.24 1.76991
7658.45 2.21313
7658.66 2.83873
7658.86 3.76317
7658.97 4.39238
7659.07 5.16954
7659.17 6.15661
7659.28 7.40696
7659.38 8.99165
7659.49 10.9592
7659.61 14.0209
7659.74 17.5194
7660.00 21.8694
7660.13 20.5804
7660.26 17.4903
7660.52 10.9567
7660.67 8.10468
7660.83 6.10081
7661.15 3.71154
7661.46 2.45361
7661.78 1.73528
7662.09 1.28989
7662.41 0.998289
7663.04 0.652761
7663.67 0.464216
7664.30 0.350576
7665.56 0.226393
7666.82 0.163342
7668.08 0.126867
7670.61 0.0880046
7673.13 0.0683740
7675.65 0.0567705
7680.70 0.0437087
7690.79 0.0316223
7700.88 0.0255263
7721.06 0.0191914
7741.24 0.0164733
7761.43 0.0165426
7771.52 0.0181494
7781.61 0.0219243
7791.70 0.0307004
7796.74 0.0394730
7801.79 0.0550455
7806.84 0.0863177
7809.36 0.115175
7811.88 0.163265
7813.14 0.200295
7813.77 0.223902
7814.40 0.252007
7815.03 0.285919
7815.66 0.327178
7816.30 0.378182
7816.93 0.441937
7817.56 0.523182
7818.19 0.628449
7818.82 0.767613
7819.45 0.955347
7820.08 1.21540
7820.71 1.58258
7821.34 2.11096
7821.97 2.86518
7822.99 4.57975
7824.00 5.72201
7824.51 5.38468
7825.02 4.57816
7826.03 2.86357
7827.01 1.79046
7828.00 1.17858
7828.98 0.820879
7829.96 0.600033
7830.95 0.456154
7831.93 0.357954
7833.89 0.237158
7835.86 0.168932
7837.83 0.126834
7841.76 0.0798894
7845.69 0.0557204
7849.62 0.0416787
7857.48 0.0268319
7865.35 0.0195483
7873.21 0.0154421
7888.94 0.0112483
7904.66 0.00933465
7920.39 0.00843067
7951.84 0.00824102
7983.29 0.00999518
7999.02 0.0121044
8014.75 0.0159847
8030.47 0.0239149
8038.34 0.0313450
8042.27 0.0367608
8046.20 0.0439889
8048.16 0.0485495
8050.13 0.0539477
8052.10 0.0604023
8054.06 0.0682037
8056.03 0.0777643
8057.01 0.0833716
8057.99 0.0896469
8059.96 0.104664
8061.92 0.123998
8063.89 0.149480
8065.86 0.183936
8067.82 0.231986
8069.79 0.301433
8071.75 0.406282
8073.72 0.572288
8075.69 0.847655
8077.65 1.31212
8079.83 2.09284
8082.00 2.61209
8084.18 2.09009
8086.36 1.30898
8088.74 0.777012
8091.11 0.494400
8093.48 0.338005
8095.86 0.245275
8098.23 0.186736
8100.61 0.147842
8105.35 0.101741
8110.10 0.0773490
8114.85 0.0638661
8124.35 0.0541985
8133.84 0.0611412
8138.59 0.0728717
8143.34 0.0950098
8145.71 0.112864
8146.90 0.124431
8148.09 0.138350
8149.27 0.155256
8150.46 0.176008
8151.05 0.188191
8151.65 0.201793
8152.83 0.234289
8154.02 0.275903
8155.21 0.330180
8156.40 0.402459
8157.58 0.500956
8158.77 0.638551
8159.96 0.835493
8161.14 1.12248
8162.33 1.53908
8164.17 2.45365
8166.00 3.06217
8166.92 2.88220
8167.84 2.45180
8169.67 1.53684
8171.40 0.975514
8173.13 0.650568
8174.86 0.458099
8176.58 0.338248
8180.04 0.205681
8183.50 0.139029
8186.95 0.101225
8190.41 0.0778929
8197.32 0.0520393
8204.24 0.0391430
8211.15 0.0322477
8224.98 0.0274687
8238.80 0.0312650
8245.72 0.0376208
8252.63 0.0499020
8259.54 0.0749814
8263.00 0.0978044
8264.73 0.113951
8265.59 0.123713
8266.45 0.134884
8267.32 0.147756
8268.18 0.162645
8269.05 0.180003
8269.91 0.200388
8270.78 0.224522
8271.64 0.253345
8272.50 0.288101
8273.37 0.330450
8274.23 0.382705
8275.10 0.447824
8275.96 0.530103
8276.82 0.635433
8277.69 0.771955
8278.55 0.950668
8279.42 1.18549
8280.28 1.49113
8282.14 2.38177
8284.00 2.97479
8284.93 2.79963
8285.86 2.38017
8287.72 1.48936
8288.89 1.09269
8290.06 0.816723
8292.41 0.491046
8294.75 0.322380
8297.09 0.226578
8299.44 0.167689
8301.78 0.129182
8306.47 0.0837519
8311.15 0.0590827
8315.84 0.0442407
8325.21 0.0280348
8334.58 0.0198381
8343.96 0.0151277
8362.70 0.0102638
8381.45 0.00817587
8400.19 0.00794401
8409.57 0.00911482
8414.25 0.0105669
8418.94 0.0134092
8423.63 0.0196953
8425.97 0.0260092
8428.31 0.0374997
8429.48 0.0471331
8430.65 0.0617292
8431.83 0.0854148
8433.00 0.127529
8433.58 0.162155
8434.17 0.213722
8434.76 0.295339
8435.34 0.435359
8435.93 0.706905
8436.22 0.949346
8436.51 1.34031
8436.66 1.63284
8436.81 2.02722
8436.95 2.58343
8437.10 3.38639
8437.17 3.93695
8437.25 4.61438
8437.32 5.46888
8437.39 6.56067
8437.46 7.97267
8437.54 9.81640
8437.61 12.2322
8437.68 15.3673
8437.84 24.5925
8438.00 30.6809
8438.08 28.8492
8438.16 24.5295
8438.32 15.3179
8438.47 9.75809
8438.61 6.52625
8438.76 4.59313
8438.90 3.37925
8439.20 2.02368
8439.49 1.33998
8439.78 0.949049
8440.07 0.707286
8440.66 0.435730
8441.24 0.295423
8441.83 0.213766
8442.41 0.162141
8443.00 0.127457
8444.17 0.0852112
8445.34 0.0614450
8446.51 0.0467633
8447.68 0.0370618
8450.02 0.0254365
8452.36 0.0189944
8457.04 0.0124576
8461.72 0.00935679
8466.40 0.00763512
8475.76 0.00587104
8494.47 0.00454910
8513.19 0.00409489
8550.63 0.00400100
8588.06 0.00458973
8625.50 0.00622014
8644.22 0.00788059
8662.94 0.0108434
8681.66 0.0168645
8691.02 0.0225259
8700.37 0.0322047
8702.71 0.0357061
8705.05 0.0398557
8707.39 0.0448237
8709.73 0.0508362
8712.07 0.0582124
8713.24 0.0625422
8714.41 0.0673903
8716.75 0.0790007
8719.09 0.0939644
8721.43 0.113699
8723.77 0.140402
8726.11 0.177658
8728.45 0.231523
8730.79 0.312844
8733.13 0.441561
8735.47 0.654939
8737.81 1.01454
8740.41 1.62023
8743.00 2.02302
8745.60 1.61784
8748.20 1.01159
8751.27 0.574468
8754.34 0.353496
8757.41 0.235567
8760.48 0.167264
8763.55 0.124755
8766.61 0.0967145
8772.75 0.0634259
8778.89 0.0453211
8785.03 0.0344872
8797.30 0.0229199
8809.58 0.0174650
8821.85 0.0147950
8846.41 0.0137220
8870.96 0.0171290
8883.23 0.0213808
8895.51 0.0290634
8901.65 0.0352064
8904.72 0.0391896
8907.78 0.0439947
8909.32 0.0467758
8910.85 0.0498532
8912.39 0.0532737
8913.92 0.0570833
8915.46 0.0613471
8916.99 0.0661314
8918.53 0.0715252
8920.06 0.0776331
8923.13 0.0925350
8926.20 0.112250
8929.27 0.138978
8932.34 0.176231
8935.40 0.229783
8938.47 0.309272
8941.54 0.430440
8944.61 0.615380
8948.81 0.982718
8953.00 1.22699
8955.10 1.15452
8957.20 0.981454
8961.39 0.614087
8964.72 0.416637
8968.06 0.292086
8971.39 0.212968
8974.73 0.160999
8981.39 0.100447
8988.06 0.0684483
8994.73 0.0497093
9001.39 0.0378656
9014.73 0.0243674
9028.06 0.0173034
9041.40 0.0131868
9068.07 0.00894063
9094.73 0.00714263
9121.40 0.00674634
9134.74 0.00722320
9148.07 0.00898929
9154.74 0.0114703
9158.07 0.0139193
9161.41 0.0183440
9164.74 0.0276853
9166.41 0.0368808
9168.07 0.0534287
9168.91 0.0672219
9169.74 0.0880203
9170.57 0.121617
9171.41 0.180968
9172.24 0.301414
9173.07 0.606220
9173.49 0.972621
9173.70 1.29343
9173.91 1.80112
9174.01 2.17681
9174.12 2.67445
9174.22 3.35744
9174.32 4.32470
9174.43 5.74436
9174.53 7.90956
9174.64 11.3271
9174.74 16.7608
9174.87 26.8132
9175.00 33.5143
9175.07 31.5429
9175.13 26.8123
9175.26 16.7600
9175.38 10.7291
9175.50 7.18339
9175.62 5.05916
9175.74 3.73299
9175.97 2.23957
9176.21 1.48531
9176.45 1.05309
9176.69 0.785775
9177.16 0.485568
9177.63 0.329936
9178.11 0.239348
9178.58 0.182081
9179.06 0.143679
9180.01 0.0968159
9180.96 0.0705070
9181.91 0.0542777
9182.86 0.0435772
9184.75 0.0308121
9186.65 0.0238144
9190.45 0.0168935
9194.25 0.0138193
9198.05 0.0123104
9205.64 0.0112808
9220.83 0.0124155
9236.02 0.0163849
9251.21 0.0251121
9258.81 0.0332943
9262.60 0.0391959
9266.40 0.0469735
9268.30 0.0518208
9270.20 0.0574985
9272.10 0.0642035
9274.00 0.0721892
9275.89 0.0818069
9277.79 0.0935151
9279.69 0.107948
9281.59 0.125982
9283.49 0.148895
9285.39 0.178513
9287.29 0.217554
9289.19 0.270099
9291.08 0.342503
9292.98 0.444381
9294.88 0.589856
9296.78 0.796312
9299.89 1.27190
9303.00 1.58814
9304.56 1.49429
9306.12 1.26998
9309.23 0.793969
9312.61 0.470533
9315.99 0.298054
9319.37 0.202292
9322.75 0.145308
9326.13 0.109136
9329.51 0.0849343
9336.27 0.0557537
9343.03 0.0396108
9349.79 0.0298052
9363.30 0.0190836
9376.82 0.0137542
9390.34 0.0108387
9417.38 0.00840197
9444.41 0.00873534
9457.93 0.0101516
9471.45 0.0132057
9484.97 0.0199755
9491.73 0.0265688
9498.48 0.0380477
9505.24 0.0605111
9508.62 0.0807202
9510.31 0.0950007
9512.00 0.113514
9512.85 0.124903
9513.69 0.138107
9514.54 0.153525
9515.38 0.171667
9516.23 0.193196
9517.07 0.218983
9517.92 0.250181
9518.76 0.288299
9519.61 0.335547
9520.45 0.394816
9521.30 0.470202
9522.14 0.567467
9522.99 0.694702
9523.83 0.863045
9524.68 1.08689
9525.52 1.38138
9527.26 2.20671
9529.00 2.75560
9529.87 2.59267
9530.75 2.20311
9532.49 1.37635
9533.94 0.915925
9535.40 0.632085
9536.85 0.455232
9538.30 0.340807
9541.21 0.209364
9544.11 0.140900
9547.02 0.101150
9549.92 0.0761750
9555.73 0.0478337
9561.54 0.0330100
9567.35 0.0243110
9578.98 0.0150336
9590.60 0.0104455
9602.22 0.00784264
9625.46 0.00514862
9648.70 0.00386093
9671.95 0.00316422
9718.43 0.00256559
9764.92 0.00257735
9788.16 0.00283583
9811.40 0.00341115
9834.64 0.00470674
9846.26 0.00599473
9857.89 0.00830949
9869.51 0.0131263
9875.32 0.0177914
9881.13 0.0260431
9886.94 0.0428229
9889.84 0.0586376
9892.75 0.0857244
9894.20 0.107163
9895.66 0.137954
9896.38 0.158652
9897.11 0.184370
9897.83 0.216892
9898.56 0.258806
9899.29 0.314108
9900.01 0.388771
9900.74 0.492790
9901.47 0.642972
9902.19 0.869412
9902.92 1.22618
9903.64 1.81479
9904.01 2.24638
9904.37 2.80170
9905.19 4.48102
9906.00 5.60009
9906.41 5.26976
9906.82 4.48011
9907.63 2.80087
9908.42 1.75013
9909.21 1.15090
9910.00 0.800544
9910.79 0.584225
9911.58 0.443299
9912.36 0.347122
9913.94 0.228898
9915.52 0.162108
9917.10 0.120934
9920.25 0.0751091
9923.41 0.0516142
9926.56 0.0380557
9932.87 0.0239449
9939.18 0.0173068
9945.49 0.0138800
9958.12 0.0115080
9970.74 0.0130969
9977.05 0.0159279
9983.36 0.0215966
9989.67 0.0338723
9992.82 0.0458001
9995.98 0.0666715
9999.14 0.108019
10000.7 0.145662
10001.5 0.172625
10002.3 0.207948
10003.1 0.255422
10003.9 0.321202
10004.3 0.364573
10004.7 0.415784
10005.1 0.480161
10005.5 0.558090
10005.9 0.658806
10006.2 0.784515
10006.6 0.952569
10007.0 1.17013
10007.4 1.47232
10007.8 1.87823
10008.2 2.44119
10008.6 3.21634
10009.3 5.14965
10010.0 6.44035
10010.4 6.06009
10010.7 5.14870
10011.4 3.21540
10012.0 2.12869
10012.6 1.46288
10013.2 1.05014
10013.8 0.783985
10014.9 0.479670
10016.1 0.321702
10017.3 0.230247
10018.5 0.172868
10020.8 0.107882
10023.2 0.0739696
10025.6 0.0541027
10030.3 0.0330013
10035.0 0.0225781
10039.7 0.0166897
10049.1 0.0106314
10058.6 0.00773851
10068.0 0.00615125
10086.9 0.00460419
10105.7 0.00397990
10124.6 0.00377242
10162.3 0.00406456
10200.1 0.00525573
10219.0 0.00639726
10237.8 0.00825128
10256.7 0.0115940
10275.5 0.0190997
10280.3 0.0226701
10285.0 0.0277734
10287.3 0.0312271
10289.7 0.0355828
10292.1 0.0412156
10294.4 0.0486863
10296.8 0.0590540
10298.0 0.0658202
10299.1 0.0740649
10300.3 0.0842679
10301.5 0.0971202
10302.7 0.113647
10303.8 0.135206
10305.0 0.164644
10306.2 0.205954
10307.4 0.266450
10308.6 0.359903
10309.7 0.514431
10310.9 0.793215
10311.5 1.02122
10312.1 1.35237
10312.7 1.84364
10313.3 2.55591
10314.1 4.08015
10315.0 5.07758
10315.9 4.06153
10316.7 2.54231
10317.7 1.51522
10318.6 0.971256
10319.5 0.667399
10320.5 0.485849
10321.4 0.369434
10322.3 0.292494
10324.2 0.199954
10326.1 0.149024
10327.9 0.118844
10329.8 0.0997299
10331.7 0.0873581
10333.5 0.0791710
10335.4 0.0738906
10337.3 0.0706411
10339.1 0.0689571
10341.0 0.0685056
10342.9 0.0690980
10344.7 0.0706158
10346.6 0.0730032
10348.4 0.0762681
10350.3 0.0804010
10354.0 0.0916253
10357.8 0.107592
10361.5 0.129914
10365.2 0.161183
10369.0 0.205393
10372.7 0.268348
10376.4 0.356835
10382.7 0.566828
10389.0 0.706138
10392.2 0.664376
10395.3 0.564976
10401.6 0.353961
10406.3 0.246909
10410.9 0.177004
10415.6 0.131246
10420.2 0.100512
10429.5 0.0637192
10438.8 0.0438019
10448.1 0.0319191
10457.4 0.0243146
10476.0 0.0155114
10494.6 0.0108175
10513.1 0.00802579
10550.3 0.00501571
10587.5 0.00351870
10624.7 0.00267757
10699.0 0.00185828
10773.4 0.00159415
10847.7 0.00178470
10884.9 0.00224100
10903.5 0.00271206
10922.1 0.00356419
10940.7 0.00534329
10950.0 0.00707558
10959.2 0.0101634
10963.9 0.0127199
10968.5 0.0165617
10973.2 0.0227304
10977.8 0.0335511
10982.5 0.0553590
10987.1 0.109789
10988.3 0.136689
10989.5 0.174491
10990.0 0.199554
10990.6 0.230395
10991.2 0.268901
10991.8 0.317772
10992.4 0.380974
10992.9 0.464479
10993.5 0.577551
10994.1 0.734989
10994.7 0.961077
10995.3 1.29630
10995.8 1.80669
10996.4 2.58510
10997.2 4.14526
10998.0 5.16766
10998.4 4.85993
10998.8 4.12372
10999.6 2.58441
11000.2 1.81702
11000.7 1.31010
11001.3 0.974990
11001.9 0.751105
11003.0 0.477942
11004.1 0.328480
11005.3 0.238939
11006.4 0.181420
11008.6 0.114806
11010.9 0.0793237
11013.2 0.0582758
11017.7 0.0356740
11022.2 0.0244693
11026.7 0.0181776
11035.8 0.0118236
11044.8 0.00899084
11053.9 0.00768036
11072.0 0.00732926
11090.0 0.00946008
11099.1 0.0120629
11108.1 0.0169016
11117.2 0.0269411
11121.7 0.0364266
11126.2 0.0526391
11130.7 0.0837047
11131.9 0.0959394
11133.0 0.111112
11134.1 0.130227
11135.3 0.154750
11136.4 0.186877
11137.0 0.206977
11137.5 0.230003
11138.1 0.257536
11138.7 0.289563
11139.8 0.374591
11140.9 0.500690
11142.0 0.695653
11143.2 1.00887
11144.3 1.51730
11145.7 2.42342
11147.0 3.02601
11147.7 2.84604
11148.4 2.41554
11149.7 1.51105
11150.6 1.10097
11151.4 0.820641
11153.2 0.491051
11154.9 0.320346
11156.6 0.224365
11158.3 0.165226
11160.1 0.126872
11163.5 0.0816450
11167.0 0.0572443
11170.4 0.0426762
11177.3 0.0270418
11184.2 0.0194235
11191.1 0.0153695
11204.9 0.0122830
11218.7 0.0135286
11225.6 0.0162686
11232.5 0.0218613
11239.4 0.0339842
11242.8 0.0456603
11246.3 0.0657462
11249.7 0.104705
11251.4 0.139488
11252.3 0.163742
11253.2 0.194974
11254.0 0.236620
11254.9 0.292278
11255.3 0.327644
11255.7 0.369680
11256.2 0.420097
11256.6 0.481160
11257.0 0.555898
11257.5 0.648402
11257.9 0.764232
11258.3 0.910968
11258.8 1.09887
11259.2 1.34146
11259.6 1.65540
11260.0 2.05775
11260.5 2.63313
11261.0 3.29066
11262.0 4.11222
11262.5 3.87021
11263.0 3.28987
11264.0 2.05692
11264.7 1.41354
11265.5 1.00491
11266.2 0.739981
11266.9 0.563076
11268.4 0.353546
11269.9 0.241012
11271.4 0.174053
11272.9 0.131738
11275.8 0.0830792
11278.8 0.0572474
11281.8 0.0420269
11287.7 0.0256559
11293.6 0.0175114
11299.5 0.0128704
11311.4 0.00803482
11323.3 0.00568320
11335.1 0.00435836
11358.8 0.00299646
11382.6 0.00235978
11406.3 0.00203962
11453.7 0.00188025
11501.1 0.00224281
11524.9 0.00274271
11548.6 0.00371195
11572.3 0.00580349
11584.2 0.00785469
11596.0 0.0114985
11607.9 0.0189102
11613.8 0.0258813
11619.7 0.0377774
11625.7 0.0605537
11627.2 0.0695714
11628.6 0.0806819
11630.1 0.0946727
11631.6 0.112612
11632.3 0.123691
11633.1 0.136280
11633.8 0.150855
11634.6 0.167845
11635.3 0.187795
11636.0 0.211405
11637.5 0.273529
11639.0 0.365541
11640.5 0.507562
11642.0 0.735248
11643.4 1.10400
11645.2 1.76574
11647.0 2.20655
11647.9 2.07657
11648.8 1.76505
11650.6 1.10333
11651.7 0.813405
11652.8 0.611776
11654.9 0.369822
11657.1 0.243135
11659.3 0.170672
11661.5 0.125944
11663.7 0.0965995
11668.1 0.0619061
11672.5 0.0430556
11676.8 0.0317237
11685.6 0.0194049
11694.4 0.0132107
11703.1 0.00967727
11720.6 0.00602757
11738.1 0.00430176
11755.7 0.00338325
11790.7 0.00260467
11825.7 0.00258350
11843.2 0.00285821
11860.7 0.00347764
11878.2 0.00487788
11887.0 0.00627420
11895.8 0.00878834
11904.5 0.0140456
11908.9 0.0191531
11913.3 0.0281819
11915.5 0.0355922
11917.6 0.0466044
11919.8 0.0639917
11922.0 0.0937983
11924.2 0.151295
11925.3 0.202706
11925.9 0.238826
11926.4 0.284492
11927.0 0.345725
11927.5 0.428646
11927.8 0.482530
11928.1 0.544421
11928.6 0.708323
11929.1 0.959307
11929.7 1.34696
11930.0 1.63567
11930.2 1.99644
11930.5 2.46286
11930.8 3.05988
11931.4 4.89832
11932.0 6.09246
11932.3 5.73125
11932.6 4.86616
11933.2 3.03463
11934.0 1.74539
11934.7 1.08863
11935.4 0.730624
11936.1 0.520107
11936.8 0.386108
11937.5 0.298435
11938.9 0.193233
11940.3 0.134925
11941.7 0.0998399
11944.5 0.0613020
11947.3 0.0417233
11950.1 0.0305319
11955.7 0.0188625
11961.3 0.0132767
11966.9 0.0102220
11978.1 0.00729182
11989.4 0.00616393
12000.6 0.00585591
12023.0 0.00671966
12045.5 0.00985489
12056.7 0.0130799
12067.9 0.0187380
12079.1 0.0297964
12084.8 0.0396736
12087.6 0.0466304
12090.4 0.0555803
12091.8 0.0611006
12093.2 0.0674365
12094.6 0.0748058
12096.0 0.0834395
12097.4 0.0937140
12098.8 0.105873
12100.2 0.120491
12101.6 0.138245
12103.0 0.160219
12104.4 0.187347
12105.8 0.221467
12107.2 0.264918
12108.6 0.321351
12110.0 0.394269
12111.4 0.489370
12112.8 0.612225
12115.9 0.979406
12119.0 1.22406
12120.6 1.15177
12122.1 0.978739
12125.2 0.611564
12127.8 0.407054
12130.4 0.280911
12132.9 0.202284
12135.5 0.151369
12140.7 0.0929155
12145.8 0.0624977
12151.0 0.0448007
12156.2 0.0336800
12166.5 0.0210741
12176.8 0.0144786
12187.1 0.0106152
12207.7 0.00650326
12228.4 0.00448376
12249.0 0.00335327
12290.2 0.00223638
12331.5 0.00182298
12372.7 0.00194367
12393.4 0.00243329
12403.7 0.00298014
12414.0 0.00401443
12424.3 0.00626182
12429.5 0.00850276
12434.6 0.0125558
12437.2 0.0159490
12439.8 0.0210869
12442.4 0.0294031
12444.9 0.0440941
12446.2 0.0561691
12447.5 0.0741083
12448.8 0.102409
12450.1 0.150848
12451.4 0.244015
12452.0 0.327369
12452.7 0.458650
12453.0 0.558946
12453.3 0.690345
12453.7 0.872339
12454.0 1.13312
12454.1 1.30715
12454.3 1.52174
12454.5 1.78927
12454.6 2.12649
12454.8 2.55581
12454.9 3.10646
12455.1 3.81393
12455.3 4.71411
12455.4 6.05308
12455.6 7.58203
12456.0 9.42675
12456.2 8.85812
12456.4 7.50103
12456.8 4.71355
12457.0 3.22557
12457.3 2.30106
12457.6 1.69877
12457.9 1.29494
12458.5 0.808436
12459.0 0.551830
12459.6 0.397142
12460.1 0.300366
12461.3 0.187979
12462.4 0.128558
12463.5 0.0934616
12464.7 0.0710453
12465.8 0.0558718
12468.1 0.0372506
12470.3 0.0266980
12472.6 0.0201480
12474.8 0.0158219
12479.3 0.0105975
12483.9 0.00770381
12488.4 0.00592878
12492.9 0.00476683
12501.9 0.00338313
12511.0 0.00262626
12529.0 0.00187535
12547.1 0.00154182
12565.1 0.00138447
12601.3 0.00133036
12637.4 0.00156008
12655.5 0.00185197
12673.5 0.00240891
12691.6 0.00361206
12700.6 0.00480481
12709.7 0.00696100
12714.2 0.00876371
12718.7 0.0114937
12723.2 0.0159164
12727.7 0.0237631
12730.0 0.0302214
12732.3 0.0398424
12734.5 0.0550791
12736.8 0.0811504
12739.0 0.131882
12740.2 0.177242
12741.3 0.250507
12741.9 0.305754
12742.4 0.379529
12743.0 0.484922
12743.3 0.552956
12743.5 0.635751
12743.8 0.741714
12744.1 0.869685
12744.4 1.03122
12744.7 1.23779
12745.0 1.50518
12745.2 1.85472
12745.5 2.31325
12745.8 2.90900
12746.4 4.66325
12747.0 5.80459
12747.3 5.44831
12747.6 4.63207
12748.2 2.90846
12748.9 1.73148
12749.5 1.10595
12750.2 0.749713
12750.8 0.539655
12751.4 0.403595
12752.1 0.313638
12753.4 0.204387
12754.7 0.143082
12755.9 0.105696
12758.5 0.0645804
12761.1 0.0435558
12763.7 0.0314824
12766.2 0.0238703
12768.8 0.0188025
12774.0 0.0126519
12779.1 0.00921639
12784.3 0.00710867
12789.4 0.00572644
12799.7 0.00409268
12810.0 0.00321253
12830.6 0.00238214
12851.2 0.00207208
12871.8 0.00199596
12913.0 0.00226444
12954.2 0.00318100
12974.8 0.00412336
12995.4 0.00580588
13016.0 0.00923456
13026.3 0.0124736
13036.6 0.0180441
13046.9 0.0288710
13049.5 0.0332002
13052.1 0.0385902
13054.6 0.0454727
13057.2 0.0543698
13058.5 0.0598640
13059.8 0.0662389
13061.1 0.0736896
13062.4 0.0823928
13063.7 0.0928080
13064.9 0.105301
13066.2 0.120441
13067.5 0.138841
13068.8 0.161833
13070.1 0.190750
13071.4 0.227639
13072.7 0.274976
13074.0 0.337556
13075.2 0.419961
13076.5 0.530748
13077.8 0.675951
13080.4 1.07562
13083.0 1.33976
13084.3 1.26200
13085.6 1.07511
13088.2 0.675494
13089.9 0.487200
13091.7 0.358779
13095.2 0.210995
13098.6 0.136526
13102.1 0.0950076
13105.6 0.0698334
13109.1 0.0535329
13116.0 0.0345466
13123.0 0.0243727
13130.0 0.0183445
13143.9 0.0119449
13157.8 0.00889749
13171.7 0.00733377
13199.5 0.00628968
13227.4 0.00692495
13255.2 0.00965463
13269.1 0.0128509
13276.1 0.0155974
13283.0 0.0200194
13290.0 0.0282926
13293.5 0.0357614
13296.9 0.0483854
13298.7 0.0584086
13300.4 0.0729921
13302.2 0.0955350
13303.0 0.111790
13303.9 0.133313
13304.8 0.162676
13305.6 0.204218
13306.5 0.265694
13307.4 0.362008
13308.2 0.524472
13308.7 0.652029
13309.1 0.826441
13309.6 1.08449
13310.0 1.46131
13310.4 2.03767
13310.8 2.92083
13311.4 4.64974
13312.0 5.79726
13312.6 4.61812
13313.2 2.89684
13313.6 2.05563
13314.0 1.49585
13314.4 1.12323
13314.8 0.869201
13315.6 0.561892
13316.4 0.395097
13317.3 0.293706
13318.1 0.229406
13319.7 0.154710
13321.3 0.115299
13323.0 0.0926981
13324.6 0.0788401
13326.2 0.0700775
13327.9 0.0644932
13329.5 0.0610996
13331.1 0.0592395
13332.8 0.0585402
13334.4 0.0587756
13336.0 0.0598022
13337.7 0.0615387
13339.3 0.0639472
13342.6 0.0708095
13345.8 0.0806112
13349.1 0.0940723
13352.4 0.112215
13355.6 0.136840
13358.9 0.170241
13362.1 0.215767
13365.4 0.277103
13368.6 0.353100
13371.7 0.439877
13378.0 0.547832
13381.2 0.515579
13384.3 0.438661
13390.6 0.275146
13395.1 0.193691
13399.7 0.140024
13404.2 0.104481
13408.7 0.0804476
13417.8 0.0515207
13426.9 0.0357989
13435.9 0.0264428
13445.0 0.0205187
13463.1 0.0140087
13481.3 0.0114304
13499.4 0.0125384
13508.5 0.0162872
13513.0 0.0203812
13517.6 0.0279268
13522.1 0.0436800
13524.4 0.0586758
13526.6 0.0843032
13528.9 0.133887
13531.2 0.247523
13532.3 0.369960
13532.9 0.467715
13533.1 0.530134
13533.4 0.605433
13533.7 0.700815
13534.0 0.814655
13534.3 0.956432
13534.6 1.13493
13534.8 1.37111
13535.1 1.66454
13535.4 2.04118
13535.7 2.52004
13536.0 3.22621
13536.3 4.03415
13537.0 5.04520
13537.3 4.74741
13537.7 4.03358
13538.3 2.51944
13538.9 1.60607
13539.5 1.07239
13540.2 0.754188
13540.8 0.554861
13542.0 0.333315
13543.2 0.221998
13544.4 0.157960
13545.6 0.118251
13548.1 0.0738847
13550.5 0.0508270
13552.9 0.0374337
13557.8 0.0231755
13562.7 0.0161309
13567.5 0.0121166
13577.3 0.00789825
13587.0 0.00579574
13596.8 0.00456616
13616.2 0.00320588
13635.7 0.00246999
13655.2 0.00200527
13694.2 0.00144484
13733.1 0.00111595
13772.1 0.000899273
13850.0 0.000632927
13850.0 0.235308
14000.0 0.233907
15000.0 0.225161
16000.0 0.217324
17000.0 0.210265
18000.0 0.203875
19000.0 0.198067
20000.0 0.192769
25000.0 0.172103
30000.0 0.158056
35000.0 0.148053
40000.0 0.140680
50000.0 0.130617
60000.0 0.124011
70000.0 0.119171
80000.0 0.115304
90000.0 0.112024
100000 0.111892
110000 0.109471
120000 0.107407
130970 0.0658137
130970 0.0657749
131086 0.0655152
131086 0.0655147
135000 0.0567445
150000 0.0539530
200000 0.0522196
250000 0.0456263
300000 0.0426108
381550 0.0399126
384016 0.0398311
384017 0.0398310
400000 0.0393022
500000 0.0364319
600000 0.0351374
679914 0.0344167
693000 0.0342986
693000 0.0342986
700000 0.0342355
725247 0.0340917
725247 0.0340917
800000 0.0336660
856383 0.0299967
856383 0.0299967
858679 0.0298473
858679 0.0298473
900000 0.0271582
941150 0.0252048
941150 0.0252048
1.00000E+06 0.0224111
1.10000E+06 0.0202067
1.20000E+06 0.0180023
1.30000E+06 0.0170662
1.40000E+06 0.0162195
1.50000E+06 0.0145931
1.60000E+06 0.0139194
1.70000E+06 0.0133320
1.80000E+06 0.0121637
1.90000E+06 0.0116677
2.00000E+06 0.0111893
2.50000E+06 0.00879700
3.00000E+06 0.00700189
3.50000E+06 0.00534063
4.00000E+06 0.00390885
4.94102E+06 0.00201872
5.00000E+06 0.00190025
5.05176E+06 0.00184905
5.05176E+06 0.00184905
6.00000E+06 0.000911144
7.00000E+06 0.000498875
7.13569E+06 0.000477833
7.40000E+06 0.000436846
7.42965E+06 0.000432842
7.42965E+06 0.000432842
7.50000E+06 0.000423342
8.00000E+06 0.000320113
9.00000E+06 0.000329457
1.00000E+07 0.000446680
1.00622E+07 0.000462691
1.00623E+07 0.000462706
1.10000E+07 0.000704087
1.20000E+07 0.000914218
1.25015E+07 0.000969309
1.25016E+07 0.000969315
1.30000E+07 0.00102407
1.40000E+07 0.00101684
1.45000E+07 0.000940581
1.50000E+07 0.000846875
1.60000E+07 0.000626295
1.66795E+07 0.000513092
1.70000E+07 0.000459698
1.80000E+07 0.000332966
1.90000E+07 0.000237888
2.00000E+07 0.000178381