Hg-200(n,g) ENDF/B-VII.1
Energy(eV) XS(b)
1.00000E-05 72.5709
1.25000E-05 64.9093
1.50000E-05 59.2539
2.00000E-05 51.3153
2.75000E-05 43.7619
3.50000E-05 38.7908
4.25000E-05 35.2020
5.00000E-05 32.4547
6.25000E-05 29.0283
7.50000E-05 26.4991
0.000100000 22.9489
0.000125000 20.5261
0.000150000 18.7377
0.000200000 16.2273
0.000275000 13.8387
0.000350000 12.2667
0.000425000 11.1319
0.000500000 10.2631
0.000625000 9.17956
0.000750000 8.37975
0.00100000 7.25707
0.00125000 6.49092
0.00150000 5.92537
0.00200000 5.13152
0.00275000 4.37617
0.00350000 3.87905
0.00425000 3.52018
0.00500000 3.24544
0.00625000 2.90280
0.00750000 2.64988
0.0100000 2.29485
0.0125000 2.05257
0.0150000 1.87372
0.0200000 1.62267
0.0253000 1.44272
0.0314750 1.29346
0.0376500 1.18263
0.0500000 1.02621
0.0625000 0.917850
0.0750000 0.837859
0.100000 0.725574
0.125000 0.648942
0.150000 0.592373
0.200000 0.512963
0.275000 0.437395
0.350000 0.387655
0.500000 0.324245
0.750000 0.264622
1.00000 0.229063
1.50000 0.186856
2.00000 0.161673
2.75000 0.137684
3.50000 0.121876
5.00000 0.101689
7.50000 0.0826529
10.0000 0.0712586
15.0000 0.0576698
20.0000 0.0495123
27.5000 0.0416926
35.0000 0.0365058
50.0000 0.0298375
75.0000 0.0235118
100.000 0.0197326
150.000 0.0153136
200.000 0.0127993
275.000 0.0106357
350.000 0.00947928
500.000 0.00878603
625.000 0.00941181
750.000 0.0113402
875.000 0.0156748
937.500 0.0196965
1000.00 0.0262851
1040.04 0.0329546
1080.08 0.0431162
1120.11 0.0597123
1160.15 0.0896261
1180.17 0.114566
1200.19 0.152293
1220.21 0.213376
1240.23 0.322107
1250.24 0.411593
1260.24 0.545159
1262.75 0.588891
1265.25 0.638144
1266.50 0.665166
1267.75 0.693934
1269.00 0.724626
1270.25 0.757418
1271.51 0.792535
1272.76 0.830139
1274.01 0.870503
1275.26 0.913905
1276.51 0.960657
1277.76 1.01111
1280.26 1.12478
1282.77 1.25891
1285.27 1.41856
1287.77 1.61079
1290.27 1.84483
1292.78 2.13393
1295.28 2.49636
1297.78 2.95912
1300.28 3.56246
1302.79 4.36904
1305.29 5.47845
1307.79 7.05950
1310.29 9.41084
1312.79 13.0953
1315.30 19.2297
1317.80 30.1347
1319.05 38.6720
1320.30 50.1896
1322.65 79.6968
1325.00 98.9815
1327.40 78.6730
1329.80 48.8022
1332.42 28.6602
1335.04 18.0246
1337.65 12.1548
1340.27 8.67415
1342.89 6.47108
1345.51 4.99917
1350.74 3.22743
1355.98 2.24806
1361.22 1.65265
1371.69 0.998201
1382.16 0.666384
1392.63 0.475716
1403.10 0.356313
1413.58 0.276699
1434.52 0.180549
1455.46 0.127000
1476.41 0.0942033
1497.35 0.0727036
1539.24 0.0472182
1581.13 0.0333209
1623.01 0.0249636
1664.90 0.0195848
1748.68 0.0134088
1832.45 0.0102722
1916.23 0.00864318
2000.00 0.00792140
2175.94 0.00865609
2263.91 0.0104909
2351.88 0.0143203
2395.86 0.0176822
2439.84 0.0228875
2483.83 0.0314744
2527.81 0.0470373
2549.81 0.0600325
2571.80 0.0796825
2593.79 0.111439
2615.78 0.167739
2626.78 0.213845
2637.77 0.282311
2648.77 0.390287
2654.27 0.469302
2657.02 0.518161
2658.39 0.545519
2659.77 0.575082
2661.14 0.607142
2662.52 0.641933
2663.89 0.679831
2665.26 0.721151
2666.64 0.766383
2668.01 0.815960
2669.39 0.870534
2670.76 0.930703
2673.51 1.07133
2676.26 1.24614
2679.01 1.46703
2681.76 1.75143
2684.51 2.12565
2687.26 2.63074
2690.01 3.33316
2692.75 4.34496
2695.50 5.86333
2698.25 8.24840
2701.00 12.1618
2703.75 18.6786
2706.88 29.8610
2710.00 37.2713
2713.13 29.7738
2716.25 18.5943
2718.48 13.0841
2720.71 9.44027
2722.94 7.02757
2725.17 5.38974
2729.63 3.41658
2734.09 2.33982
2738.55 1.69574
2743.01 1.28265
2751.93 0.804810
2760.86 0.550602
2769.78 0.399893
2778.70 0.303406
2787.62 0.237993
2805.46 0.157616
2823.30 0.112031
2841.14 0.0837336
2858.99 0.0649828
2894.67 0.0424736
2930.35 0.0300043
2966.04 0.0223894
3001.72 0.0174044
3073.09 0.0114967
3144.45 0.00826972
3215.82 0.00632302
3287.19 0.00506528
3429.92 0.00361372
3572.66 0.00287440
3858.13 0.00234061
4143.59 0.00257395
4286.33 0.00304646
4429.06 0.00398369
4571.80 0.00594849
4643.17 0.00779042
4714.53 0.0108953
4785.90 0.0167260
4821.58 0.0217793
4857.27 0.0297128
4892.95 0.0432183
4928.63 0.0690603
4946.48 0.0919124
4964.32 0.128521
4982.16 0.192575
4991.08 0.244310
4995.54 0.278361
5000.00 0.320041
5003.17 0.355630
5004.76 0.375682
5006.34 0.397467
5007.93 0.421191
5009.52 0.447087
5011.10 0.475425
5012.69 0.506518
5014.27 0.540731
5015.86 0.578488
5019.03 0.666720
5022.20 0.776393
5025.38 0.914817
5028.55 1.09277
5031.72 1.32611
5034.89 1.63916
5038.06 2.07001
5041.24 2.67975
5044.41 3.56714
5047.58 4.88729
5050.75 6.84769
5055.38 10.9489
5060.00 13.6700
5062.31 12.8573
5064.63 10.9234
5069.25 6.82304
5074.53 3.93561
5079.80 2.44292
5085.08 1.63284
5090.35 1.15834
5095.63 0.860531
5100.90 0.662847
5111.45 0.426361
5122.01 0.296423
5132.56 0.217735
5153.66 0.131538
5174.76 0.0879593
5195.86 0.0629562
5216.96 0.0473103
5238.07 0.0368810
5280.27 0.0242874
5322.47 0.0172710
5364.68 0.0129716
5406.88 0.0101518
5491.29 0.00680956
5575.70 0.00499090
5660.11 0.00390431
5744.51 0.00321443
5913.33 0.00245557
6082.14 0.00212673
6419.78 0.00212554
6588.59 0.00239652
6757.41 0.00291314
6926.22 0.00383741
7095.04 0.00556675
7179.45 0.00702224
7263.85 0.00922381
7348.26 0.0127703
7432.67 0.0190124
7517.08 0.0315480
7559.28 0.0431867
7601.49 0.0627759
7622.59 0.0780047
7643.69 0.0995086
7648.97 0.106268
7654.24 0.113734
7659.52 0.122008
7664.79 0.131208
7670.07 0.141476
7672.71 0.147062
7675.34 0.152978
7677.98 0.159255
7680.62 0.165920
7685.89 0.180542
7691.17 0.197145
7696.44 0.216085
7701.72 0.237816
7707.00 0.262883
7717.55 0.325983
7728.10 0.413376
7738.65 0.538039
7749.20 0.721299
7759.75 0.997309
7770.30 1.41286
7777.73 1.80656
7785.15 2.25517
7800.00 2.81009
7807.45 2.64066
7814.90 2.24106
7829.80 1.39746
7841.52 0.949123
7853.24 0.665377
7864.97 0.484569
7876.69 0.365480
7900.13 0.226416
7923.58 0.152775
7947.02 0.109599
7970.46 0.0822829
8017.35 0.0511113
8064.24 0.0347393
8111.13 0.0251150
8158.01 0.0189900
8204.90 0.0148564
8298.68 0.00980078
8392.45 0.00694686
8486.23 0.00518088
8580.00 0.00401314
8580.00 0.213434
10000.0 0.196195
12812.5 0.178277
15625.0 0.165116
21250.0 0.146618
26875.0 0.133898
32500.0 0.124417
43750.0 0.110916
55000.0 0.101529
77500.0 0.0889271
100000 0.0805855
120000 0.0730147
140000 0.0671713
180000 0.0586304
200000 0.0553812
220000 0.0525973
260000 0.0480513
340000 0.0415586
369756 0.0397140
369800 0.0397115
382350 0.0390008
394900 0.0383251
420000 0.0370682
465000 0.0341458
510000 0.0316936
600000 0.0277988
800000 0.0278726
951978 0.0268733
952020 0.0268730
976010 0.0267330
1.00000E+06 0.0265971
1.03449E+06 0.0263459
1.03449E+06 0.0263459
1.06142E+06 0.0261571
1.06250E+06 0.0261496
1.08836E+06 0.0259742
1.12500E+06 0.0257347
1.14224E+06 0.0256254
1.25000E+06 0.0249869
1.26040E+06 0.0249357
1.26043E+06 0.0249356
1.29037E+06 0.0247911
1.32032E+06 0.0246507
1.38021E+06 0.0243816
1.42368E+06 0.0241952
1.48398E+06 0.0239481
1.50000E+06 0.0238845
1.52280E+06 0.0233523
1.52284E+06 0.0233514
1.52284E+06 0.0233513
1.55898E+06 0.0225474
1.57822E+06 0.0221380
1.57822E+06 0.0221379
1.58164E+06 0.0220665
1.59512E+06 0.0217885
1.60144E+06 0.0216602
1.61249E+06 0.0214388
1.61653E+06 0.0213589
1.63913E+06 0.0209204
1.64676E+06 0.0207758
1.64968E+06 0.0207209
1.65126E+06 0.0206913
1.65143E+06 0.0206881
1.66737E+06 0.0203934
1.66740E+06 0.0203928
1.68423E+06 0.0200891
1.69347E+06 0.0199256
1.70108E+06 0.0197926
1.70894E+06 0.0196568
1.71530E+06 0.0195480
1.71531E+06 0.0195478
1.72122E+06 0.0194477
1.72697E+06 0.0193510
1.72934E+06 0.0193114
1.73726E+06 0.0191800
1.73963E+06 0.0191410
1.73963E+06 0.0191410
1.74305E+06 0.0190849
1.75000E+06 0.0189718
1.75052E+06 0.0189634
1.78456E+06 0.0184256
1.80072E+06 0.0181791
1.81956E+06 0.0178987
1.82484E+06 0.0178214
1.83368E+06 0.0176932
1.83370E+06 0.0176929
1.85511E+06 0.0173887
1.85511E+06 0.0173887
1.85765E+06 0.0173532
1.86080E+06 0.0173094
1.86084E+06 0.0173088
1.86617E+06 0.0172350
1.89240E+06 0.0168794
1.97250E+06 0.0158658
1.97250E+06 0.0158658
1.98225E+06 0.0157493
1.98426E+06 0.0157255
2.00000E+06 0.0155410
2.05944E+06 0.0147409
2.07170E+06 0.0145839
2.08476E+06 0.0144194
2.08476E+06 0.0144194
2.12496E+06 0.0139309
2.12497E+06 0.0139308
2.12718E+06 0.0139046
2.13763E+06 0.0137822
2.13773E+06 0.0137810
2.13863E+06 0.0137706
2.13863E+06 0.0137705
2.14627E+06 0.0136822
2.14627E+06 0.0136822
2.15461E+06 0.0135868
2.15462E+06 0.0135868
2.16225E+06 0.0135003
2.16225E+06 0.0135003
2.16230E+06 0.0134997
2.20054E+06 0.0130793
2.20055E+06 0.0130793
2.25000E+06 0.0125651
2.50000E+06 0.0103893
2.62320E+06 0.00945040
2.75000E+06 0.00861156
2.85130E+06 0.00801950
3.00000E+06 0.00725561
3.50000E+06 0.00517875
3.75000E+06 0.00445327
4.00000E+06 0.00386692
4.50000E+06 0.00276993
5.00000E+06 0.00205520
5.50000E+06 0.00144724
5.50222E+06 0.00144509
5.57981E+06 0.00137251
6.00000E+06 0.00105072
6.50000E+06 0.000733459
7.00000E+06 0.000525823
7.73806E+06 0.000335223
7.81565E+06 0.000320535
8.00000E+06 0.000288673
8.06919E+06 0.000265783
8.22839E+06 0.000220357
8.55189E+06 0.000152217
9.03459E+06 8.98865E-05
9.51730E+06 5.45549E-05
1.00000E+07 3.39394E-05
1.02500E+07 2.38504E-05
1.05000E+07 1.69035E-05
1.07500E+07 1.20776E-05
1.10000E+07 8.69635E-06
1.12500E+07 6.30813E-06
1.15000E+07 4.60817E-06
1.20000E+07 2.50877E-06
1.25000E+07 1.37281E-06
1.30000E+07 7.69187E-07
1.35000E+07 4.40503E-07
1.40000E+07 2.57437E-07
1.43757E+07 1.77374E-07
1.47514E+07 1.23391E-07
1.47514E+07 1.23386E-07
1.51653E+07 8.36050E-08
1.53757E+07 6.88732E-08
1.60000E+07 3.93472E-08
1.70000E+07 2.44715E-08
1.80000E+07 1.56387E-08
1.85000E+07 1.14149E-08
1.90000E+07 8.40214E-09
2.00000E+07 9.49703E-09
2.00000E+07 0.00000
2.02338E+07 0.00000
2.10000E+07 0.00000
2.14922E+07 0.00000
2.17904E+07 0.00000
2.20000E+07 0.00000
2.30000E+07 0.00000
2.32940E+07 0.00000
2.40000E+07 0.00000
2.50000E+07 0.00000
2.56510E+07 0.00000
2.60000E+07 0.00000
2.64644E+07 0.00000
2.70000E+07 0.00000
2.80000E+07 0.00000
2.80773E+07 0.00000
2.81691E+07 0.00000
2.90000E+07 0.00000
3.00000E+07 0.00000
3.01136E+07 0.00000
3.10000E+07 0.00000
3.20000E+07 0.00000
3.30000E+07 0.00000
3.36807E+07 0.00000
3.40000E+07 0.00000
3.45816E+07 0.00000
3.50000E+07 0.00000
3.60000E+07 0.00000
3.65817E+07 0.00000
3.67945E+07 0.00000
3.70000E+07 0.00000
3.79789E+07 0.00000
3.80000E+07 0.00000
3.90000E+07 0.00000
3.90117E+07 0.00000
4.00000E+07 0.00000
4.00049E+07 0.00000
4.09327E+07 0.00000
4.10000E+07 0.00000
4.20000E+07 0.00000
4.30000E+07 0.00000
4.32684E+07 0.00000
4.33289E+07 0.00000
4.40000E+07 0.00000
4.50000E+07 0.00000
4.59328E+07 0.00000
4.60000E+07 0.00000
4.70000E+07 0.00000
4.80000E+07 0.00000
4.90000E+07 0.00000
4.91745E+07 0.00000
5.00000E+07 0.00000
5.10000E+07 0.00000
5.20000E+07 0.00000
5.22247E+07 0.00000
5.23113E+07 0.00000
5.30000E+07 0.00000
5.40000E+07 0.00000
5.50000E+07 0.00000
5.53605E+07 0.00000
5.58675E+07 0.00000
5.60000E+07 0.00000
5.70000E+07 0.00000
5.80000E+07 0.00000
5.89940E+07 0.00000
5.90000E+07 0.00000
5.93350E+07 0.00000
6.00000E+07 0.00000
6.10000E+07 0.00000
6.20000E+07 0.00000
6.25620E+07 0.00000
6.30000E+07 0.00000
6.40000E+07 0.00000
6.50000E+07 0.00000
6.60000E+07 0.00000
6.70000E+07 0.00000
6.80000E+07 0.00000
6.84331E+07 0.00000
6.90000E+07 0.00000
7.00000E+07 0.00000
7.10000E+07 0.00000
7.18420E+07 0.00000
7.20000E+07 0.00000
7.30000E+07 0.00000
7.40000E+07 0.00000
7.50000E+07 0.00000
7.56075E+07 0.00000
7.60000E+07 0.00000
7.70000E+07 0.00000
7.80000E+07 0.00000
7.90000E+07 0.00000
7.95350E+07 0.00000
8.00000E+07 0.00000
8.10000E+07 0.00000
8.20000E+07 0.00000
8.30000E+07 0.00000
8.40000E+07 0.00000
8.50000E+07 0.00000
8.60000E+07 0.00000
8.70000E+07 0.00000
8.80000E+07 0.00000
8.90000E+07 0.00000
9.00000E+07 0.00000
9.10000E+07 0.00000
9.20000E+07 0.00000
9.30000E+07 0.00000
9.40000E+07 0.00000
9.50000E+07 0.00000
9.60000E+07 0.00000
9.70000E+07 0.00000
9.80000E+07 0.00000
9.90000E+07 0.00000
1.00000E+08 0.00000
1.02000E+08 0.00000
1.04000E+08 0.00000
1.06000E+08 0.00000
1.08000E+08 0.00000
1.10000E+08 0.00000
1.12000E+08 0.00000
1.14000E+08 0.00000
1.16000E+08 0.00000
1.18000E+08 0.00000
1.20000E+08 0.00000
1.22000E+08 0.00000
1.24000E+08 0.00000
1.26000E+08 0.00000
1.28000E+08 0.00000
1.30000E+08 0.00000
1.32000E+08 0.00000
1.34000E+08 0.00000
1.36000E+08 0.00000
1.38000E+08 0.00000
1.40000E+08 0.00000
1.42000E+08 0.00000
1.44000E+08 0.00000
1.46000E+08 0.00000
1.48000E+08 0.00000
1.50000E+08 0.00000