Pb-208(n,tot) ENDF/B-VII.1
Energy(eV) XS(b)
1.00000E-05 11.3831
1.25000E-05 11.3819
1.50000E-05 11.3810
2.00000E-05 11.3797
2.75000E-05 11.3785
3.50000E-05 11.3777
4.25000E-05 11.3771
5.00000E-05 11.3766
6.25000E-05 11.3761
7.50000E-05 11.3757
0.000100000 11.3751
0.000125000 11.3747
0.000150000 11.3744
0.000200000 11.3740
0.000275000 11.3737
0.000350000 11.3734
0.000425000 11.3732
0.000500000 11.3731
0.000625000 11.3729
0.000750000 11.3728
0.00100000 11.3726
0.00125000 11.3725
0.00150000 11.3724
0.00200000 11.3723
0.00275000 11.3721
0.00350000 11.3720
0.00500000 11.3719
0.00750000 11.3719
0.0100000 11.3718
0.0150000 11.3717
0.0200000 11.3717
0.0253000 11.3717
0.0376500 11.3716
0.0500000 11.3716
0.0750000 11.3716
0.100000 11.3715
0.150000 11.3715
0.200000 11.3715
0.275000 11.3715
0.350000 11.3715
0.500000 11.3715
0.750000 11.3714
1.00000 11.3714
1.50000 11.3714
2.00000 11.3714
2.75000 11.3714
3.50000 11.3714
5.00000 11.3713
7.50000 11.3713
10.0000 11.3712
15.0000 11.3712
20.0000 11.3711
27.5000 11.3709
35.0000 11.3708
50.0000 11.3705
75.0000 11.3700
100.000 11.3696
150.000 11.3687
200.000 11.3677
275.000 11.3664
350.000 11.3650
500.000 11.3622
750.000 11.3576
1000.00 11.3531
1500.00 11.3439
2000.00 11.3347
2750.00 11.3210
3500.00 11.3073
5000.00 11.2799
7500.00 11.2345
10000.0 11.1892
15000.0 11.0993
20000.0 11.0102
26815.0 10.8900
33629.9 10.7712
40444.9 10.6541
43852.3 10.5964
45556.1 10.5678
46407.9 10.5536
46833.9 10.5465
47046.8 10.5430
47153.3 10.5412
47206.6 10.5404
47233.2 10.5401
47246.5 10.5407
47253.2 10.5440
47256.5 10.5569
47258.1 10.6022
47259.0 10.7401
47259.4 11.0771
47259.8 13.3172
47260.0 16.1027
47260.2 13.3249
47260.5 11.2130
47260.9 10.8204
47261.5 10.6327
47262.9 10.5666
47265.6 10.5468
47270.9 10.5412
47281.6 10.5396
47303.0 10.5389
47345.8 10.5380
47431.4 10.5366
47602.7 10.5337
47945.2 10.5281
48630.1 10.5168
50000.0 10.4943
55289.9 10.4106
57934.8 10.3717
60579.8 10.3371
63224.7 10.3112
65869.6 10.3065
67192.1 10.3245
68514.6 10.3815
69175.8 10.4487
69837.0 10.5970
70167.7 10.7592
70498.3 11.1201
70663.6 11.5229
70746.2 11.8701
70828.9 12.4234
70911.6 13.4062
70952.9 14.2237
70994.2 15.4661
71035.5 17.5008
71076.9 21.1819
71097.5 24.2428
71118.2 28.7974
71138.8 35.8345
71159.5 46.8959
71210.0 83.7658
71222.6 81.0188
71235.3 70.8814
71260.5 46.8084
71285.9 31.1642
71311.4 22.8051
71336.8 18.2380
71362.2 15.5859
71387.7 13.9505
71413.1 12.8903
71464.0 11.6716
71514.8 11.0442
71565.7 10.6917
71667.4 10.3498
71769.1 10.2107
71870.9 10.1516
72074.3 10.1235
72481.2 10.1652
72888.1 10.2350
73701.9 10.4167
74515.8 10.7094
75329.6 11.2770
75736.5 11.7903
76143.4 12.6245
76550.3 14.0944
76957.2 16.9825
77160.7 19.5442
77364.1 23.5587
77567.6 30.1171
77771.0 41.0209
78250.0 76.9604
78489.5 66.2271
78729.0 46.1568
78972.6 32.4936
79216.1 24.7768
79459.6 20.3143
79703.2 17.5766
79946.7 15.7969
80190.3 14.5810
80677.3 13.0769
81164.4 12.2163
81651.5 11.6759
82625.7 11.0541
83599.8 10.7158
84574.0 10.5046
85548.1 10.3643
86035.2 10.3629
86157.0 10.4196
86278.8 10.6081
86339.7 10.8634
86370.1 11.0987
86400.5 11.4832
86431.0 12.1604
86461.4 13.4804
86476.6 14.6383
86491.9 16.4307
86507.1 19.3101
86522.3 24.0035
86560.0 40.4901
86578.9 35.8993
86597.7 26.8656
86610.8 22.2668
86623.9 19.1302
86637.0 17.0069
86650.1 15.5400
86676.2 13.7363
86702.4 12.7269
86728.6 12.1090
86754.8 11.7039
86807.1 11.2209
86859.5 10.9526
86911.8 10.7863
87016.5 10.5957
87225.9 10.4254
87435.4 10.3456
88273.0 10.2125
89948.3 10.0963
93298.9 9.96079
96649.4 9.86463
100000 9.78388
104265 9.69009
108531 9.59700
110663 9.54749
112796 9.49557
113862 9.47381
114395 9.46977
114928 9.48049
115462 9.53388
115728 9.60260
115995 9.74067
116261 10.0430
116395 10.3319
116528 10.8163
116661 11.6923
116795 13.4518
116861 15.0348
116928 17.5333
116994 21.6496
117061 28.5749
117220 53.8357
117300 48.1431
117379 34.9290
117429 28.5810
117479 24.0553
117579 18.5811
117679 15.6756
117779 13.9884
117879 12.9290
117978 12.2209
118178 11.3596
118378 10.8715
118578 10.5651
118977 10.2106
119377 10.0157
119777 9.89381
120176 9.81045
120576 9.74962
121375 9.66566
122174 9.60897
123772 9.53293
125370 9.47979
126969 9.43727
127768 9.41835
128567 9.40056
129366 9.38434
129766 9.38083
129866 9.38428
129965 9.39867
130015 9.42107
130065 9.48634
130090 9.57619
130103 9.66390
130115 9.81736
130128 10.1280
130134 10.4190
130140 10.8991
130147 11.8074
130150 12.5719
130153 13.7437
130156 15.6562
130159 19.0332
130162 25.5750
130164 31.3453
130165 39.1278
130168 57.4444
130170 69.1780
130173 57.0955
130175 39.5834
130178 26.5379
130181 20.0859
130183 16.5695
130186 14.5008
130189 13.1607
130192 12.3045
130198 11.2741
130203 10.6960
130209 10.3512
130220 9.97002
130231 9.77380
130243 9.66051
130265 9.54150
130310 9.44946
130355 9.41456
130445 9.38700
130535 9.37560
130716 9.36470
130896 9.35838
131617 9.34151
133059 9.31389
134501 9.28804
135942 9.26311
141710 9.16855
147477 9.07779
148919 9.05485
150361 9.03095
151082 9.01797
151803 9.00294
152163 8.99343
152524 8.98013
152704 8.96996
152884 8.95362
153064 8.91981
153155 8.89622
153177 8.90702
153200 8.98021
153211 9.10905
153222 9.47610
153228 9.94019
153233 10.9418
153236 11.9152
153239 13.5748
153242 16.5976
153245 22.3791
153250 41.6890
153251 41.7770
153253 38.4480
153255 28.6533
153258 21.7907
153261 17.8282
153263 15.4113
153266 13.8685
153271 12.1097
153276 11.1881
153281 10.6441
153286 10.2945
153296 9.88304
153306 9.65569
153316 9.51468
153336 9.35261
153376 9.20894
153416 9.14483
153496 9.08607
153576 9.05846
153736 9.03131
153896 9.01719
154216 9.00111
154536 8.99084
155176 8.97589
155816 8.96365
157096 8.94174
158376 8.92093
159656 8.90017
160936 8.87857
161576 8.86682
162216 8.85324
162536 8.84471
162856 8.83290
163016 8.82396
163176 8.80957
163336 8.77883
163416 8.75106
163456 8.79577
163466 8.88226
163476 9.14835
163481 9.49305
163486 10.2805
163488 11.0786
163491 12.4986
163493 15.2438
163495 17.6811
163496 21.1408
163500 39.1677
163501 39.4126
163502 36.4985
163504 27.3150
163506 20.5850
163509 16.6434
163511 14.3617
163513 12.9604
163517 11.4200
163522 10.6385
163531 9.89829
163539 9.56580
163557 9.26647
163574 9.13591
163610 9.01949
163645 8.96727
163715 8.91906
163785 8.89618
163925 8.87338
164066 8.86127
164346 8.84705
164627 8.83755
165750 8.80943
166311 8.79552
166873 8.77925
167434 8.75729
167715 8.74456
167855 8.75453
167890 8.77462
167926 8.83787
167943 8.92702
167961 9.16542
167969 9.46832
167978 10.1852
167983 10.9912
167987 12.6390
167989 14.1716
167991 16.7019
167994 21.1417
167996 29.0837
167998 41.2234
168000 49.9623
168002 41.7451
168004 29.5954
168006 22.1647
168008 17.7182
168010 15.0605
168012 13.3924
168016 11.5339
168020 10.5909
168028 9.71611
168036 9.33731
168052 9.02308
168068 8.89754
168100 8.79657
168132 8.75518
168196 8.71706
168260 8.69760
168324 8.69192
168388 8.73269
168420 8.82324
168436 8.92289
168452 9.10497
168468 9.47059
168476 9.79441
168484 10.3001
168492 11.1324
168500 12.5946
168508 15.3650
168516 20.8464
168530 38.8514
168534 39.2676
168537 36.2876
168544 27.3583
168551 21.2066
168557 17.4557
168564 15.1028
168570 13.6132
168583 11.8880
168596 10.9789
168609 10.4403
168622 10.0931
168647 9.68437
168673 9.45654
168699 9.31482
168751 9.15167
168802 9.06210
168854 9.00672
168957 8.94421
169060 8.91635
169163 8.92354
169215 8.96038
169240 9.00254
169266 9.08160
169292 9.24782
169305 9.40481
169318 9.66727
169330 10.1585
169337 10.5800
169343 11.2132
169350 12.2543
169356 14.0355
169363 17.3772
169369 23.9852
169375 33.3386
169380 39.7645
169386 33.8101
169391 24.6055
169397 18.1039
169403 14.7266
169410 12.8303
169416 11.7224
169422 11.0071
169428 10.5350
169440 9.95727
169453 9.63428
169465 9.43542
169489 9.21315
169514 9.09632
169539 9.02691
169588 8.95069
169686 8.88608
169784 8.85743
169981 8.82932
170177 8.81393
170571 8.79495
170964 8.78200
171750 8.76272
172536 8.74716
174109 8.72035
175682 8.69599
178827 8.65017
181972 8.60609
188263 8.52031
194553 8.43636
219716 8.11077
244878 7.79365
257459 7.63275
260604 7.59082
263750 7.54717
266895 7.50103
267681 7.49018
268467 7.48408
268861 7.48910
269057 7.49840
269254 7.51920
269450 7.56865
269549 7.61908
269647 7.70929
269745 7.88913
269794 8.05192
269844 8.31454
269893 8.77446
269942 9.66564
269966 10.4485
269991 11.6558
270016 13.6044
270040 16.7588
270070 22.6308
270100 26.8909
270130 23.3914
270160 17.6098
270190 13.8078
270220 11.6491
270250 10.3919
270280 9.61840
270310 9.11168
270340 8.76474
270400 8.33560
270460 8.08973
270520 7.93605
270640 7.76052
270759 7.66666
270879 7.60979
271119 7.54549
271359 7.51011
271599 7.48723
272078 7.45757
272558 7.43686
273037 7.41955
273996 7.38726
274955 7.35174
275435 7.33081
275914 7.30673
276394 7.27983
276873 7.25912
277113 7.26824
277233 7.29021
277353 7.33964
277472 7.44780
277592 7.69391
277652 7.92847
277712 8.30858
277772 8.94613
277832 10.0407
277990 15.9930
278030 16.6899
278069 16.2474
278148 13.7875
278238 11.4798
278328 10.1558
278418 9.39335
278508 8.92436
278597 8.61551
278687 8.40088
278867 8.12741
279047 7.96332
279227 7.85530
279586 7.72266
279946 7.64442
280305 7.59245
281024 7.52639
281743 7.48457
282462 7.45436
283900 7.41077
286776 7.35055
289652 7.30330
301155 7.14477
312659 6.99364
318411 6.90825
321287 6.84386
322006 6.81709
322725 6.77704
323084 6.74768
323444 6.71067
323623 6.69574
323803 6.71391
323893 6.77628
323938 6.84665
323983 6.97287
324028 7.20934
324073 7.68019
324118 8.71123
324140 9.68364
324163 11.2284
324196 15.3718
324230 21.2224
324247 22.8235
324264 22.3487
324298 18.0040
324324 14.8217
324351 12.6605
324378 11.2461
324404 10.3021
324458 9.17082
324511 8.55119
324564 8.17222
324618 7.92239
324724 7.61878
324831 7.44441
324938 7.33290
325151 7.19971
325577 7.07400
326004 7.01335
327710 6.91898
331123 6.85732
334536 6.83443
337949 6.84700
341362 6.93170
343068 7.03245
344774 7.21376
346481 7.55119
348187 8.22186
349040 8.80470
349894 9.68646
350747 11.0489
351600 13.1516
352794 17.5819
353391 19.8922
353540 20.3630
353689 20.7709
353838 21.1621
353876 21.3059
353913 21.5688
353932 21.8419
353950 22.4161
353960 23.0015
353969 24.0688
353974 24.9743
353978 26.2937
353983 28.3609
353988 31.4732
353994 37.6975
354000 41.8047
354006 37.6627
354013 31.5412
354018 27.9513
354024 25.8014
354029 24.4947
354034 23.6776
354045 22.7395
354056 22.2664
354078 21.8291
354100 21.6462
354139 21.5114
354178 21.4565
354256 21.4008
354413 21.2777
354725 20.7684
355350 18.9181
356600 14.7076
357387 12.7433
358175 11.3335
359749 9.59751
361324 8.64532
362899 8.07257
364473 7.69910
366048 7.43903
369197 7.10104
372347 6.88746
375496 6.73517
381795 6.51723
388093 6.34967
394392 6.19766
397541 6.11995
400690 6.03451
402265 5.98469
403840 5.92333
404627 5.88356
405414 5.83165
406202 5.76934
406399 5.76910
406497 5.78360
406595 5.82228
406694 5.91465
406792 6.13975
406841 6.36540
406891 6.74949
406940 7.43703
406989 8.73435
407045 11.6841
407100 16.5288
407128 18.3492
407156 18.4693
407211 15.1256
407254 12.4878
407296 10.6828
407339 9.50336
407382 8.71691
407467 7.78193
407552 7.27158
407637 6.95994
407723 6.75404
407893 6.50251
408064 6.35635
408234 6.26126
408575 6.14402
408916 6.07287
409257 6.02336
409938 5.95464
410620 5.90436
411302 5.86193
412666 5.78448
414029 5.70436
415393 5.61440
416075 5.57131
416416 5.55754
416756 5.56034
417097 5.60500
417438 5.76359
417609 5.94612
417779 6.27952
417950 6.91240
418120 8.16507
418310 11.0694
418500 15.8905
418595 17.7174
418690 17.9487
418880 15.0195
419032 12.4989
419183 10.7374
419335 9.57114
419487 8.78436
419790 7.83350
420093 7.30207
420397 6.97077
420700 6.74708
421307 6.46579
421914 6.29568
422520 6.18031
423734 6.02942
424947 5.92984
426160 5.85478
428587 5.73936
431014 5.64507
433440 5.55953
435867 5.47740
437080 5.43693
437687 5.41772
437990 5.41215
438142 5.42463
438218 5.48558
438256 5.69298
438275 6.26928
438284 7.45421
438289 9.06667
438294 12.9620
438297 17.5227
438300 20.5822
438303 17.5999
438306 13.0180
438311 8.98447
438316 7.34859
438326 6.20409
438346 5.66308
438386 5.47055
438466 5.41060
438626 5.38962
438945 5.37474
439584 5.35194
440862 5.30764
443418 5.21707
448530 5.02221
458753 4.54472
468977 3.87360
474088 3.42584
476644 3.16480
479200 2.87544
481276 2.61969
483352 2.35515
484390 2.23415
485428 2.15136
486466 2.19194
486985 2.33293
487504 2.65291
488252 3.74119
489000 5.80771
489374 6.69975
489748 6.96455
490496 5.97786
491090 4.95080
491684 4.15810
492278 3.58451
492872 3.16254
494060 2.58632
495248 2.20405
497624 1.70752
500000 1.39349
502802 1.15139
503502 1.09679
504202 1.02854
504552 0.980242
504903 0.912484
505253 0.835812
505340 0.843194
505428 0.917497
505472 1.01987
505515 1.22167
505559 1.62954
505603 2.48212
505627 3.32694
505652 4.60453
505700 8.64446
505724 10.5618
505749 11.2126
505797 9.10804
505848 6.44647
505899 4.80950
505949 3.84674
506000 3.24840
506073 2.71729
506147 2.39306
506220 2.17850
506294 2.02776
506440 1.83263
506587 1.71384
506881 1.58042
507174 1.51110
507762 1.44969
508349 1.43370
510698 1.52984
513046 1.75212
515395 2.07358
517744 2.52603
520093 3.24445
521267 3.82628
522441 4.72956
523616 6.26858
524790 9.07286
527100 17.8439
528255 16.1634
529410 11.9793
530258 9.67693
531105 8.13077
531953 7.10848
532800 6.42208
534727 5.54707
536654 5.13806
538581 4.93563
540509 4.83481
544363 4.76968
548217 4.77477
552071 4.79651
555926 4.80942
559780 4.77530
560743 4.74311
561707 4.68318
562189 4.63365
562671 4.56313
563152 4.48633
563273 4.48561
563393 4.51864
563514 4.63289
563634 4.94597
563767 5.85811
563900 7.74414
563967 8.68888
564033 9.13219
564166 8.58555
564273 7.80452
564380 7.18616
564487 6.74423
564594 6.42971
564808 6.02805
565022 5.79085
565236 5.63749
565450 5.53157
565879 5.39652
566307 5.31566
566735 5.26381
567163 5.23505
567377 5.24827
567484 5.32960
567537 5.59094
567551 5.80660
567564 6.27838
567578 7.63052
567584 9.43287
567591 13.4940
567596 18.4079
567600 21.7310
567605 18.5196
567609 13.4232
567615 9.38392
567622 7.57379
567634 6.19943
567646 5.72195
567659 5.51051
567709 5.26456
567808 5.19241
568007 5.16856
568405 5.15073
569202 5.12611
569998 5.10368
570396 5.08413
570596 5.05688
570695 5.01636
570745 4.97100
570770 4.97869
570782 5.18484
570788 5.71960
570795 8.07090
570800 13.1649
570803 12.3932
570805 10.1714
570812 7.37620
570818 6.40104
570830 5.73969
570855 5.39828
570905 5.24119
571005 5.16907
571205 5.13396
571604 5.11443
572403 5.10066
574000 5.08861
577194 5.07820
580388 5.07372
581985 5.07407
582784 5.08023
583183 5.10216
583283 5.12235
583382 5.17384
583432 5.23763
583482 5.39220
583507 5.57057
583532 5.95462
583545 6.33952
583557 7.03241
583570 8.42261
583576 9.63656
583582 11.4493
583591 15.2186
583600 17.8503
583609 15.3562
583618 11.4670
583625 9.43737
583632 8.14082
583645 6.75298
583659 6.10402
583672 5.75977
583700 5.43047
583727 5.28679
583781 5.16862
583836 5.12326
584054 5.07772
584490 5.06695
585361 5.06430
587104 5.06210
590590 5.05724
594076 5.05302
595819 5.05648
596255 5.06179
596691 5.07664
596908 5.09596
597126 5.14558
597235 5.20720
597344 5.35666
597399 5.52933
597453 5.90379
597480 6.28168
597508 6.96464
597521 7.52714
597535 8.35115
597548 9.58944
597562 11.4553
597581 15.2470
597600 17.8991
597619 15.4025
597638 11.4718
597660 8.63913
597683 7.21492
597705 6.46102
597727 6.02946
597772 5.58598
597816 5.37984
597905 5.20243
597994 5.13157
598173 5.07724
598351 5.05760
598707 5.04352
599063 5.03852
600488 5.03222
603339 5.02599
604764 5.02400
606189 5.02482
606902 5.02867
607614 5.04123
607971 5.05836
608327 5.10330
608505 5.15982
608594 5.21178
608683 5.29854
608772 5.46043
608817 5.59951
608861 5.81563
608906 6.17739
608951 6.83941
608973 7.39207
608995 8.20600
609017 9.44955
609040 11.3398
609070 15.1170
609100 17.7526
609130 15.2901
609161 11.4189
609190 8.96590
609219 7.58294
609249 6.77891
609278 6.28831
609337 5.75485
609396 5.49199
609455 5.34520
609514 5.25560
609632 5.15724
609867 5.07982
610103 5.05194
610574 5.03543
611045 5.03768
611516 5.05503
611751 5.07388
611987 5.10753
612223 5.17466
612340 5.23632
612458 5.33919
612576 5.53130
612635 5.69730
612694 5.95675
612752 6.39654
612811 7.22364
612841 7.93416
612870 9.01417
612900 10.7235
612929 13.4623
613000 21.8887
613036 18.5992
613071 13.3839
613093 11.0878
613115 9.49170
613159 7.61779
613203 6.65823
613247 6.12101
613291 5.79425
613335 5.58366
613423 5.33929
613511 5.20979
613599 5.13381
613774 5.05328
614126 4.99120
614478 4.96580
615181 4.92870
615533 4.88961
615709 4.84934
615797 4.86849
615841 5.11993
615863 5.81757
615874 6.88217
615879 7.91123
615884 9.55161
615900 16.9814
615908 15.8771
615916 12.4944
615925 9.65158
615934 8.09924
615952 6.67537
615970 6.07491
615989 5.76671
616025 5.46496
616061 5.32272
616134 5.18960
616207 5.12784
616353 5.06970
616499 5.04203
616791 5.01506
617083 5.00156
617666 4.98745
618250 4.97961
619417 4.97004
620584 4.96353
622918 4.95399
625252 4.94787
627586 4.94788
628753 4.95318
629920 4.96676
631087 4.99970
631671 5.03277
632254 5.09073
632838 5.20348
633129 5.30380
633421 5.46461
633713 5.74519
634005 6.29586
634150 6.78917
634296 7.57508
634442 8.89310
634588 11.1546
634744 14.8953
634900 17.5471
635056 15.2855
635212 11.6886
635397 9.21435
635582 8.38068
635675 8.49263
635767 9.10744
635860 10.6428
635906 12.0350
635953 14.0765
636100 22.1073
636174 18.8665
636248 13.7757
636297 11.3699
636346 9.73056
636445 7.84293
636543 6.88121
636642 6.33543
636740 5.99555
636839 5.76887
637036 5.49103
637233 5.33073
637430 5.22794
637824 5.10556
638219 5.03625
638613 4.99214
639401 4.93966
640189 4.90947
640978 4.88955
642555 4.86368
644131 4.84606
645708 4.83199
648862 4.80822
661476 4.72337
667783 4.67933
674090 4.63261
680397 4.58318
681973 4.57127
683550 4.56214
684338 4.56175
685127 4.57339
685521 4.59502
685718 4.61748
685915 4.65792
686112 4.73927
686211 4.81373
686309 4.93594
686408 5.15570
686457 5.33658
686507 5.60377
686556 6.02012
686605 6.70482
686654 7.90716
686704 10.0820
686752 13.4776
686800 15.8912
686848 13.7594
686897 10.3336
686946 8.07902
686994 6.82605
687043 6.10671
687092 5.66992
687141 5.38763
687190 5.19669
687288 4.96290
687386 4.83130
687484 4.75002
687680 4.65872
687876 4.61082
688071 4.58214
688463 4.54987
689246 4.51991
690029 4.50332
691596 4.47991
692379 4.47647
692575 4.48397
692771 4.51316
692868 4.55675
692966 4.67445
693015 4.81875
693064 5.14158
693089 5.47041
693113 6.06194
693138 7.24415
693150 8.26684
693162 9.76529
693181 13.1454
693200 15.5461
693219 13.5095
693238 10.2386
693250 8.75083
693262 7.71261
693286 6.46330
693310 5.80481
693334 5.42599
693381 5.03091
693429 4.84169
693525 4.67075
693620 4.59693
693811 4.53356
694002 4.50617
694384 4.48087
694765 4.46795
695529 4.45272
696293 4.44349
697057 4.44085
697820 4.45804
698202 4.49292
698393 4.52946
698584 4.59465
698775 4.72146
698870 4.83224
698966 5.00408
699061 5.28729
699157 5.78926
699252 6.76689
699300 7.60477
699348 8.84076
699500 15.3141
699538 15.5795
699576 14.5362
699653 11.1058
699728 8.59299
699804 7.15018
699880 6.31750
699955 5.80927
700031 5.48041
700107 5.25650
700258 4.98031
700410 4.82247
700561 4.72325
700864 4.60874
701166 4.54611
701469 4.50703
702075 4.46060
702680 4.43304
703286 4.41390
704497 4.38712
706919 4.35347
709341 4.33930
711764 4.36335
712975 4.40834
714186 4.50072
715397 4.68646
716608 5.07121
717819 5.91932
718425 6.70138
719030 7.90283
721000 14.4649
721418 15.2953
721700 18.5739
721841 21.4555
721982 20.2409
722216 16.8887
722449 15.1579
722566 14.6765
722683 14.5235
722741 14.6875
722800 15.2062
722858 16.5035
722887 17.7382
722917 19.6355
722970 24.8457
723000 26.5355
723042 23.6661
723084 19.0737
723115 16.6778
723146 15.0998
723177 14.0494
723208 13.3220
723270 12.3952
723332 11.8228
723395 11.4193
723457 11.1065
723581 10.6234
723705 10.2401
723830 9.91261
724079 9.35965
724576 8.50265
725073 7.86040
726068 6.97219
727063 6.40116
728058 6.01104
729053 5.73100
731043 5.35934
733033 5.12474
735023 4.96310
736018 4.90107
737013 4.85344
737510 4.84110
738008 4.85499
738257 4.89387
738381 4.93562
738505 5.01009
738630 5.15453
738692 5.28033
738754 5.47525
738816 5.79727
738878 6.37160
738941 7.49626
738972 8.46035
739003 9.85634
739051 13.0212
739100 15.3087
739149 13.3681
739197 10.1889
739244 8.18192
739290 7.02231
739337 6.33518
739383 5.90788
739476 5.43312
739569 5.19186
739662 5.05271
739755 4.96470
739941 4.86217
740126 4.80508
740312 4.76844
740684 4.72244
741427 4.66939
742170 4.63279
743656 4.57428
745143 4.52326
751088 4.33462
754060 4.23025
757033 4.10258
758519 4.02550
760006 3.94352
760749 3.90995
761492 3.90134
762235 3.97036
762607 4.07775
762978 4.29079
763309 4.64505
763639 5.28613
763804 5.78189
763970 6.44942
764135 7.35151
764300 8.58845
764404 9.62777
764507 11.0134
764611 13.0372
764715 16.3055
764900 23.9511
764993 21.6387
765085 17.5300
765152 15.4210
765220 14.0064
765287 13.0364
765354 12.3323
765488 11.3409
765622 10.6176
765782 9.92112
765941 9.33416
766260 8.39257
766579 7.68683
766898 7.15390
767536 6.42679
768174 5.96880
768813 5.65999
769451 5.43962
770727 5.14734
772003 4.96159
773279 4.83166
775831 4.65726
778384 4.54012
780936 4.45158
782212 4.41419
783488 4.38123
784126 4.36768
784765 4.36051
785084 4.36505
785403 4.39130
785562 4.43175
785722 4.53928
785801 4.66861
785881 4.95406
785921 5.24220
785961 5.76176
786001 6.79974
786021 7.70575
786041 9.04586
786070 11.9608
786100 14.0977
786130 12.3308
786159 9.37840
786184 7.70818
786208 6.66724
786233 6.01447
786257 5.58995
786306 5.10013
786355 4.84311
786453 4.59752
786551 4.48790
786747 4.39328
786943 4.35282
787335 4.31572
787727 4.29633
788511 4.27140
789295 4.25231
790862 4.21991
792430 4.19172
795565 4.14732
798700 4.12860
801835 4.16635
804970 4.34569
806538 4.55449
808105 4.92279
809673 5.57256
811240 6.70813
811941 7.44065
812641 8.33411
812991 8.84053
813342 9.39254
813517 9.70273
813692 10.0893
813779 10.3708
813867 10.8393
813911 11.2523
813955 11.9588
813976 12.5274
813998 13.3557
814020 14.6049
814042 16.5006
814100 23.0146
814129 20.7419
814158 16.8497
814185 14.4722
814212 13.1521
814236 12.5097
814259 12.1428
814306 11.9006
814353 12.1127
814400 12.7057
814588 14.3306
814727 13.6247
814866 13.2749
815144 13.1758
815700 13.4980
817930 13.1859
820160 10.8994
822025 9.28044
822491 8.97095
822957 8.72374
823190 8.65024
823306 8.64295
823423 8.67564
823540 8.78848
823656 9.08834
823714 9.39628
823773 9.92705
823831 10.8928
823889 12.6949
824000 17.5628
824056 15.8406
824111 12.9260
824173 10.8399
824235 9.73049
824297 9.11088
824359 8.73452
824484 8.31338
824608 8.08320
824732 7.93265
824856 7.82118
825105 7.65468
825601 7.41269
826098 7.21947
827092 6.90108
828085 6.64032
829079 6.42148
830072 6.23739
830569 6.15883
831066 6.09507
831314 6.07627
831562 6.08650
831687 6.12543
831811 6.24392
831873 6.39137
831935 6.72210
831966 7.06123
831997 7.68322
832028 8.97330
832044 10.1525
832059 11.9709
832100 18.2337
832121 15.9922
832141 12.1598
832157 10.0986
832173 8.80376
832189 7.97863
832205 7.44276
832237 6.82116
832269 6.49596
832332 6.18752
832396 6.05091
832524 5.93176
832651 5.87752
832906 5.81906
833161 5.77982
834181 5.65982
835201 5.55812
836221 5.46740
838261 5.31301
840302 5.19206
842342 5.11284
844382 5.11658
845402 5.19025
846422 5.37296
847442 5.78384
848462 6.68709
850500 10.6267
851519 10.6283
852538 9.10273
853545 7.83108
854552 7.01411
855559 6.49752
856566 6.16397
857573 5.95666
858077 5.89828
858580 5.88123
859084 5.93538
859335 6.01225
859587 6.15106
859839 6.40076
860091 6.86686
860342 7.79695
860468 8.59537
860594 9.75171
860797 12.4670
861000 14.5059
861203 12.9023
861406 10.1456
861532 8.89394
861658 8.00785
861911 6.93973
862163 6.37002
862416 6.03540
862668 5.82125
862920 5.67438
863425 5.48677
863930 5.37053
864435 5.28932
865444 5.17773
866454 5.09899
867463 5.03631
869482 4.93409
871501 4.84282
873520 4.74222
874530 4.67634
875539 4.58138
876044 4.51026
876549 4.40625
876801 4.33367
877053 4.24256
877306 4.14552
877432 4.12848
877558 4.22703
877619 4.39028
877679 4.72540
877800 6.54596
877861 8.22724
877921 9.70456
878042 9.54098
878110 8.65802
878179 7.89726
878247 7.32071
878315 6.89408
878452 6.32874
878588 5.98338
878725 5.75496
878861 5.59405
879134 5.38347
879407 5.25191
879680 5.16164
880226 5.04515
881318 4.92871
882410 4.90915
883605 5.09805
884800 5.88716
885455 6.57879
886323 6.94178
887190 6.15820
888200 4.73043
889573 3.70040
890945 3.62926
892160 3.75672
893376 3.87936
895806 4.03485
898237 4.10715
900667 4.13468
903098 4.13474
904313 4.12603
905528 4.11048
906743 4.08485
907959 4.03943
908566 4.00025
909174 3.93440
909478 3.88056
909781 3.79813
910085 3.66431
910237 3.57819
910389 3.54964
910495 3.77353
910600 4.71380
910706 6.21027
910811 6.62822
910974 6.28641
911055 6.21176
911136 6.27325
911217 6.51978
911299 7.06372
911380 8.16859
911461 10.3996
911600 16.1248
911635 15.6440
911670 14.0742
911739 10.4318
911806 8.10887
911873 6.79907
911941 6.04149
912008 5.57822
912075 5.27677
912142 5.07084
912276 4.81432
912411 4.66520
912545 4.56936
912813 4.45441
913082 4.38768
913351 4.34351
913888 4.28706
914425 4.25094
914962 4.22470
916037 4.18717
917111 4.16141
918185 4.15013
918723 4.15991
918991 4.17596
919260 4.20926
919528 4.28140
919663 4.34894
919797 4.45984
919931 4.65547
920066 5.03684
920133 5.37134
920200 5.88776
920267 6.71543
920334 8.05836
920417 10.6127
920500 12.5771
920583 11.1500
920666 8.60677
920764 6.70167
920861 5.71663
920959 5.18229
921056 4.86819
921153 4.66922
921251 4.53556
921446 4.37216
921641 4.27857
921836 4.21886
922226 4.14686
922615 4.10340
923005 4.07221
923785 4.02380
924565 3.97771
925345 3.91817
925734 3.87326
926124 3.80129
926319 3.74260
926514 3.64996
926709 3.48255
926904 3.24535
926952 3.41921
927000 4.26953
927048 5.71211
927096 6.03813
927219 5.13923
927280 4.87469
927341 4.70089
927464 4.49228
927587 4.37329
927832 4.24240
928077 4.17072
928568 4.09059
929058 4.04312
931020 3.93437
934945 3.76993
936907 3.68290
938869 3.60777
939850 3.59957
940831 3.65963
941812 3.90832
942793 4.68889
944400 8.12935
945204 8.17250
946007 6.65065
946532 5.69980
946844 5.40887
947155 5.77416
947200 5.91457
947367 6.60527
947534 7.36930
947868 8.74098
947900 8.91177
947993 9.49462
948086 10.1804
948273 11.3892
948645 10.6683
948835 9.61403
949025 8.75366
949119 8.46239
949214 8.33683
949309 8.53197
949404 9.41601
949502 11.7057
949600 14.7027
949698 14.9677
949796 13.1702
949889 11.5835
949981 10.4488
950074 9.65153
950166 9.07206
950351 8.28880
950536 7.77742
950721 7.41005
950906 7.12854
951276 6.71617
951646 6.42110
952016 6.19504
952756 5.86468
953496 5.63015
954236 5.45236
955716 5.19634
957196 5.01691
958676 4.88083
961636 4.67806
967556 4.35655
969036 4.26166
970516 4.14177
971256 4.06604
971996 3.97624
972736 3.88028
973106 3.84941
973476 3.87937
973682 3.96917
973888 4.18252
974094 4.64718
974300 5.58605
974506 7.16014
974712 8.77214
974918 9.20781
975124 8.59154
975370 7.61003
975617 6.84437
975863 6.30693
976110 5.92742
976602 5.44095
977095 5.14515
977588 4.94310
978081 4.79175
979066 4.56364
981037 4.18786
982023 3.99033
982515 3.90255
983008 3.87068
983306 3.93094
983604 4.13294
983902 4.61375
984200 5.56869
984796 8.52609
985392 9.08555
985716 8.56598
986040 8.01731
986364 7.55475
986687 7.18801
987335 6.67366
987983 6.34766
988631 6.13258
989278 5.98699
990574 5.82322
991869 5.76671
993164 5.78192
994460 5.82662
995755 5.70113
996728 5.05050
997700 3.78000
998673 3.07113
999645 3.10381
999999 3.17791
1.00000E+06 4.91443
1.00530E+06 4.02090
1.00710E+06 4.24740
1.00780E+06 5.32670
1.01000E+06 4.30270
1.01010E+06 4.25610
1.01820E+06 4.61320
1.01900E+06 4.63460
1.01990E+06 4.15810
1.02340E+06 4.05710
1.02440E+06 4.04900
1.02580E+06 3.89710
1.02700E+06 4.99280
1.02830E+06 9.92860
1.03000E+06 6.40100
1.03220E+06 5.09210
1.03320E+06 6.42390
1.03440E+06 4.21640
1.03560E+06 4.61070
1.03650E+06 7.97780
1.03760E+06 5.45590
1.04560E+06 4.65980
1.04700E+06 5.50800
1.04760E+06 6.43120
1.04850E+06 4.84840
1.05370E+06 4.52490
1.05520E+06 4.78100
1.05600E+06 5.46860
1.05710E+06 4.60410
1.05800E+06 5.05790
1.05870E+06 4.47090
1.05990E+06 6.87920
1.06120E+06 5.07890
1.06830E+06 4.77250
1.07100E+06 4.46930
1.07340E+06 2.57850
1.07590E+06 2.76230
1.07720E+06 3.18070
1.07790E+06 3.46440
1.07940E+06 3.09690
1.08140E+06 3.31020
1.08230E+06 4.93440
1.08410E+06 3.65950
1.08640E+06 3.76320
1.08740E+06 5.38900
1.08820E+06 4.32090
1.08910E+06 6.18260
1.09020E+06 4.69370
1.09120E+06 6.43520
1.09230E+06 4.03490
1.10140E+06 3.37010
1.10290E+06 4.48770
1.10450E+06 7.69380
1.10770E+06 5.40260
1.10950E+06 4.15000
1.11030E+06 3.06540
1.11060E+06 2.66100
1.11240E+06 3.78170
1.11420E+06 7.07530
1.11640E+06 4.98080
1.11770E+06 8.10630
1.11880E+06 5.23560
1.12130E+06 4.41310
1.12250E+06 8.41870
1.12350E+06 4.13440
1.12410E+06 3.56530
1.12560E+06 4.03640
1.12730E+06 7.56670
1.12930E+06 6.53160
1.13010E+06 6.71960
1.13100E+06 4.70420
1.13550E+06 4.10330
1.13640E+06 5.32160
1.13750E+06 7.69640
1.14090E+06 4.91320
1.14650E+06 4.36150
1.14760E+06 5.28100
1.14890E+06 9.90790
1.15000E+06 7.08790
1.15190E+06 7.29690
1.15620E+06 5.12420
1.16260E+06 4.66800
1.16370E+06 5.62340
1.16490E+06 4.35630
1.17180E+06 4.09740
1.17350E+06 6.77960
1.17620E+06 4.66820
1.17870E+06 4.79050
1.18190E+06 4.04120
1.18490E+06 4.22170
1.18620E+06 7.00190
1.18750E+06 3.81850
1.18910E+06 3.82940
1.19000E+06 5.93220
1.19070E+06 7.28130
1.19400E+06 4.38860
1.19740E+06 3.74350
1.19840E+06 5.28340
1.19930E+06 6.86330
1.20110E+06 4.69700
1.20440E+06 4.75890
1.20520E+06 5.60030
1.20610E+06 3.93420
1.21240E+06 3.21950
1.21390E+06 4.62380
1.21480E+06 4.36170
1.21670E+06 5.00370
1.22300E+06 2.90210
1.22380E+06 3.63640
1.22590E+06 8.04840
1.22700E+06 7.94150
1.22830E+06 5.22230
1.23000E+06 4.78020
1.23100E+06 6.42600
1.23230E+06 11.9400
1.23440E+06 6.73300
1.23670E+06 7.39560
1.23960E+06 7.68510
1.24580E+06 4.46250
1.24750E+06 4.59320
1.24930E+06 5.65680
1.25000E+06 7.06681
1.25040E+06 7.59210
1.25530E+06 5.30150
1.25910E+06 5.09870
1.26040E+06 5.26700
1.27000E+06 4.30550
1.27320E+06 4.79140
1.27620E+06 7.45600
1.27900E+06 7.63790
1.28120E+06 7.71060
1.28360E+06 6.93440
1.28480E+06 6.97440
1.28670E+06 5.69540
1.28970E+06 6.10290
1.29080E+06 7.06200
1.29220E+06 5.29530
1.30460E+06 4.83690
1.30640E+06 4.93440
1.31020E+06 5.06070
1.31140E+06 6.34510
1.31270E+06 4.75840
1.31440E+06 4.75100
1.31980E+06 4.73670
1.32280E+06 4.49220
1.32390E+06 4.74030
1.32510E+06 3.87020
1.32750E+06 5.13590
1.33180E+06 4.40800
1.33820E+06 4.37250
1.33930E+06 5.60970
1.34080E+06 3.66030
1.34190E+06 3.64840
1.34340E+06 6.60950
1.34510E+06 4.17840
1.34690E+06 4.43430
1.34800E+06 5.87280
1.34950E+06 5.22120
1.35080E+06 6.66590
1.35280E+06 4.90010
1.36030E+06 4.26180
1.36250E+06 4.03210
1.36560E+06 3.75800
1.36780E+06 4.11150
1.37210E+06 4.17920
1.37320E+06 5.11360
1.37520E+06 5.50070
1.37990E+06 7.78050
1.38950E+06 5.57020
1.39360E+06 5.64180
1.39840E+06 5.14480
1.40440E+06 5.32990
1.40580E+06 7.74850
1.40720E+06 4.32670
1.40980E+06 4.17880
1.41160E+06 6.93990
1.41610E+06 5.27370
1.42290E+06 5.01900
1.42430E+06 5.96760
1.42600E+06 6.31800
1.42740E+06 8.81440
1.42910E+06 5.21850
1.43170E+06 5.03090
1.43480E+06 4.54790
1.43960E+06 4.64880
1.44060E+06 7.19900
1.44280E+06 5.29630
1.44780E+06 4.94570
1.45540E+06 4.93980
1.46720E+06 4.97490
1.47040E+06 6.06760
1.47520E+06 10.9300
1.47890E+06 5.61390
1.48220E+06 4.45650
1.48420E+06 8.32950
1.48620E+06 4.93710
1.49710E+06 4.39870
1.49920E+06 4.76840
1.50000E+06 4.97958
1.50050E+06 5.11060
1.50200E+06 3.86170
1.50530E+06 5.63640
1.50690E+06 6.30730
1.50950E+06 3.86740
1.51280E+06 3.51480
1.51390E+06 5.40230
1.51490E+06 7.46540
1.51780E+06 5.32810
1.52120E+06 5.17710
1.52300E+06 6.86640
1.52460E+06 4.98670
1.52770E+06 4.11030
1.52960E+06 5.57080
1.53430E+06 4.35080
1.54150E+06 4.18860
1.54340E+06 4.62800
1.54630E+06 4.32490
1.55090E+06 3.65110
1.55120E+06 4.10710
1.55200E+06 3.88880
1.55300E+06 5.32650
1.55470E+06 8.08250
1.55760E+06 5.92360
1.56250E+06 5.07110
1.56420E+06 5.57480
1.56580E+06 5.29070
1.56690E+06 5.83530
1.56830E+06 4.85440
1.56960E+06 5.80980
1.57260E+06 3.71090
1.57650E+06 4.01380
1.57790E+06 4.63160
1.57930E+06 3.45060
1.58200E+06 3.23270
1.58370E+06 4.05480
1.58510E+06 3.15220
1.58790E+06 2.97320
1.59070E+06 5.56100
1.59290E+06 7.26090
1.59460E+06 6.48440
1.59630E+06 5.17990
1.59940E+06 4.35540
1.60190E+06 4.15220
1.60280E+06 4.13590
1.60420E+06 4.75010
1.60640E+06 3.91730
1.60760E+06 4.95780
1.60900E+06 6.44030
1.61360E+06 6.00020
1.61560E+06 7.84680
1.61730E+06 4.73780
1.61840E+06 4.33380
1.62040E+06 4.46140
1.62480E+06 4.91570
1.62650E+06 7.40210
1.62790E+06 4.38990
1.63400E+06 3.74040
1.63780E+06 3.77700
1.63900E+06 4.31280
1.64100E+06 4.02760
1.64250E+06 4.99590
1.64370E+06 4.10680
1.64520E+06 3.79900
1.64660E+06 3.37690
1.64930E+06 3.77140
1.65130E+06 4.81430
1.65730E+06 7.50690
1.66120E+06 8.80240
1.66470E+06 7.29330
1.66740E+06 6.15210
1.67130E+06 6.40250
1.67800E+06 5.51610
1.68010E+06 6.87460
1.68500E+06 7.61490
1.68930E+06 6.96610
1.69170E+06 5.64910
1.69480E+06 9.72930
1.69750E+06 9.62370
1.69940E+06 10.3060
1.70160E+06 6.05140
1.71280E+06 6.06220
1.71460E+06 7.45430
1.71680E+06 4.49120
1.71780E+06 4.55810
1.72000E+06 7.81700
1.72500E+06 6.98100
1.72690E+06 7.22140
1.72910E+06 6.45760
1.74120E+06 10.1980
1.74540E+06 10.9360
1.74930E+06 6.74610
1.75000E+06 6.14465
1.75150E+06 5.46660
1.75350E+06 7.87730
1.75510E+06 11.1570
1.76030E+06 6.37580
1.76190E+06 6.08950
1.76390E+06 4.82530
1.76650E+06 6.51100
1.76980E+06 4.94740
1.77670E+06 4.31130
1.77900E+06 5.69170
1.78030E+06 7.72480
1.78300E+06 4.95600
1.78660E+06 4.00840
1.78830E+06 4.17960
1.79030E+06 6.85470
1.79630E+06 3.34170
1.79730E+06 3.01200
1.79830E+06 4.08090
1.80030E+06 6.94930
1.80300E+06 6.88830
1.80470E+06 6.89010
1.80640E+06 5.71500
1.81080E+06 5.42340
1.81290E+06 6.87700
1.81830E+06 5.52470
1.82070E+06 5.01010
1.82210E+06 4.58950
1.82480E+06 7.42000
1.83070E+06 5.02620
1.83620E+06 4.11710
1.83870E+06 5.14130
1.84320E+06 3.93420
1.84840E+06 4.82570
1.85020E+06 4.21540
1.85330E+06 4.60270
1.85580E+06 3.71300
1.85650E+06 3.73840
1.85790E+06 5.52370
1.86390E+06 4.71180
1.86680E+06 6.03750
1.86930E+06 3.93230
1.87210E+06 5.28320
1.87430E+06 4.01830
1.88180E+06 4.04810
1.88580E+06 4.39670
1.88870E+06 4.78620
1.89300E+06 4.66720
1.89520E+06 4.96260
1.89850E+06 4.27430
1.90320E+06 5.50340
1.90540E+06 6.95820
1.90800E+06 6.21210
1.91570E+06 6.63860
1.91760E+06 6.55840
1.91940E+06 8.00270
1.92280E+06 6.36170
1.92500E+06 7.09640
1.92760E+06 5.53830
1.93100E+06 5.40110
1.93660E+06 5.44110
1.93920E+06 6.89220
1.94110E+06 4.80240
1.94340E+06 5.05460
1.94560E+06 4.80580
1.94790E+06 3.50430
1.95100E+06 7.66900
1.95480E+06 7.92330
1.95670E+06 6.95930
1.95860E+06 5.94830
1.96200E+06 7.83450
1.96470E+06 5.03580
1.96740E+06 4.63640
1.96970E+06 5.31910
1.97200E+06 4.20630
1.97470E+06 6.75970
1.97940E+06 5.35800
1.98910E+06 5.06390
1.99340E+06 3.90080
1.99500E+06 4.21320
1.99970E+06 7.55530
2.00000E+06 7.36310
2.00450E+06 4.48130
2.00640E+06 3.96670
2.00880E+06 7.23510
2.01240E+06 5.72520
2.01560E+06 6.03550
2.01760E+06 5.95700
2.01920E+06 5.23290
2.02120E+06 5.53880
2.02480E+06 5.18680
2.02720E+06 6.12150
2.02960E+06 3.45190
2.03120E+06 4.51710
2.03330E+06 6.50720
2.03810E+06 7.66620
2.04420E+06 7.53020
2.04950E+06 8.98840
2.05240E+06 4.34500
2.05690E+06 6.03310
2.05940E+06 7.29300
2.06180E+06 9.55280
2.06430E+06 9.86340
2.06760E+06 6.80920
2.07010E+06 5.49020
2.07260E+06 6.29870
2.07510E+06 6.85740
2.07800E+06 6.66790
2.08140E+06 7.21200
2.08310E+06 7.17680
2.08560E+06 5.35790
2.09150E+06 4.66920
2.09360E+06 4.42840
2.09650E+06 6.15660
2.09910E+06 4.93990
2.10160E+06 6.22700
2.10380E+06 5.11990
2.10720E+06 8.90500
2.11060E+06 6.80940
2.11660E+06 6.78070
2.12040E+06 5.93640
2.12260E+06 6.91000
2.12910E+06 4.79760
2.13170E+06 7.36430
2.13820E+06 5.41340
2.14130E+06 6.18570
2.14350E+06 7.30020
2.14610E+06 5.84810
2.14960E+06 5.17140
2.15180E+06 7.15620
2.15530E+06 5.47820
2.15800E+06 6.79530
2.16060E+06 9.53630
2.16420E+06 5.75650
2.16910E+06 5.10520
2.17490E+06 6.59630
2.18290E+06 6.21000
2.18790E+06 6.87470
2.19060E+06 8.79030
2.19470E+06 7.56010
2.19690E+06 4.91880
2.20190E+06 5.29060
2.21060E+06 7.61850
2.21290E+06 8.52880
2.21570E+06 5.00790
2.21840E+06 5.71420
2.22120E+06 5.87360
2.22630E+06 4.80340
2.23050E+06 6.62790
2.23330E+06 6.26130
2.23610E+06 7.27210
2.23930E+06 5.93120
2.24310E+06 8.09450
2.24640E+06 5.61920
2.24820E+06 5.53990
2.25000E+06 5.86213
2.25340E+06 6.53310
2.25530E+06 5.39680
2.26520E+06 7.27190
2.27190E+06 6.77590
2.27960E+06 8.91850
2.28200E+06 6.84030
2.28920E+06 6.54890
2.29600E+06 7.36240
2.30280E+06 8.44190
2.30720E+06 7.88360
2.31010E+06 8.31040
2.31160E+06 6.63840
2.31310E+06 7.57400
2.31600E+06 10.6850
2.31900E+06 8.84470
2.32140E+06 5.98120
2.32390E+06 6.45100
2.33430E+06 7.76610
2.33930E+06 9.89910
2.34430E+06 6.64790
2.34830E+06 7.20870
2.35080E+06 6.87990
2.35430E+06 8.92140
2.35740E+06 10.0050
2.36040E+06 9.10590
2.36190E+06 6.72510
2.36650E+06 5.64990
2.37100E+06 5.17490
2.37610E+06 6.28720
2.37870E+06 7.33130
2.38070E+06 10.4780
2.38230E+06 9.68740
2.38480E+06 5.64560
2.38640E+06 6.15140
2.39100E+06 11.3040
2.39460E+06 6.50350
2.39720E+06 6.45470
2.40240E+06 6.65530
2.40760E+06 8.99060
2.41340E+06 9.25900
2.41750E+06 6.67540
2.41860E+06 5.58790
2.42280E+06 7.08560
2.42590E+06 7.90070
2.42860E+06 8.03090
2.43120E+06 5.87530
2.44020E+06 11.3550
2.44500E+06 7.12860
2.44930E+06 4.92900
2.45680E+06 5.29830
2.46000E+06 4.85450
2.46490E+06 6.32180
2.46760E+06 8.08350
2.47140E+06 6.92140
2.47570E+06 8.16790
2.47840E+06 5.72690
2.48120E+06 5.64960
2.48330E+06 4.34990
2.49320E+06 9.88940
2.49540E+06 9.26440
2.49810E+06 5.86240
2.50000E+06 6.58110
2.50030E+06 6.69460
2.50260E+06 9.16540
2.50530E+06 8.39740
2.50860E+06 9.63690
2.51470E+06 6.83260
2.52090E+06 5.98270
2.52480E+06 7.27410
2.52700E+06 6.32100
2.52930E+06 6.78120
2.53550E+06 8.89250
2.53880E+06 6.91350
2.54450E+06 10.2330
2.54900E+06 5.43640
2.55300E+06 7.29900
2.55580E+06 6.14360
2.55930E+06 7.51850
2.56160E+06 8.01820
2.56500E+06 6.03090
2.56960E+06 7.45680
2.57420E+06 4.79630
2.57710E+06 5.42690
2.58340E+06 7.07640
2.59390E+06 4.80470
2.59560E+06 6.01950
2.59800E+06 8.53490
2.60380E+06 7.43190
2.60910E+06 8.89990
2.61500E+06 8.89460
2.61850E+06 6.84580
2.62680E+06 8.57090
2.62723E+06 8.42614
2.62723E+06 8.42580
2.62770E+06 8.26790
2.62980E+06 7.56150
2.63520E+06 9.21520
2.64530E+06 8.08880
2.64830E+06 6.25490
2.65070E+06 6.18670
2.65500E+06 8.29140
2.65800E+06 6.71980
2.66280E+06 10.1580
2.67010E+06 9.30900
2.67250E+06 5.57790
2.67440E+06 5.32070
2.67740E+06 8.04250
2.68290E+06 8.77520
2.68720E+06 6.19970
2.69220E+06 8.57880
2.70000E+06 5.67010
2.70140E+06 5.14800
2.70510E+06 7.08450
2.70950E+06 5.68860
2.71510E+06 7.70290
2.72140E+06 9.02040
2.72570E+06 5.79780
2.72950E+06 6.61090
2.73140E+06 7.59010
2.74210E+06 6.66930
2.74790E+06 6.48320
2.75000E+06 6.96659
2.75230E+06 7.70700
2.75490E+06 8.57590
2.75800E+06 7.74960
2.76510E+06 10.9020
2.77020E+06 10.4810
2.77600E+06 9.10990
2.77990E+06 6.36360
2.78700E+06 8.90750
2.79350E+06 6.42210
2.80000E+06 6.65340
2.80460E+06 6.81690
2.80920E+06 6.18460
2.81710E+06 6.99830
2.81910E+06 5.84580
2.82440E+06 6.70040
2.82570E+06 6.63220
2.83040E+06 6.25380
2.83300E+06 7.18710
2.83770E+06 5.26700
2.84300E+06 8.01190
2.84570E+06 5.93310
2.85380E+06 8.15190
2.85710E+06 10.7200
2.86590E+06 6.94290
2.87410E+06 6.43790
2.87880E+06 6.97510
2.88560E+06 5.95580
2.89250E+06 7.69930
2.89590E+06 9.57550
2.90000E+06 8.64400
2.90970E+06 6.44040
2.91600E+06 9.87800
2.92080E+06 6.12850
2.92500E+06 8.15120
2.92850E+06 6.70700
2.93900E+06 8.48160
2.94330E+06 10.3150
2.94890E+06 7.47990
2.95460E+06 9.66240
2.96240E+06 8.94400
2.96810E+06 7.04820
2.97380E+06 8.40580
2.98460E+06 8.42830
2.99100E+06 9.14350
2.99460E+06 6.66100
3.00000E+06 7.82720
3.00330E+06 8.53980
3.01130E+06 8.75930
3.01720E+06 9.88900
3.02670E+06 6.39380
3.03410E+06 8.40740
3.03700E+06 8.55600
3.04590E+06 7.53930
3.05560E+06 7.68900
3.05780E+06 8.28300
3.06530E+06 8.53670
3.06750E+06 7.61860
3.07580E+06 8.71160
3.08410E+06 6.52710
3.08790E+06 7.26490
3.09320E+06 6.95820
3.09620E+06 8.07490
3.10000E+06 6.81580
3.10770E+06 7.62950
3.11230E+06 7.21830
3.12300E+06 8.88130
3.12920E+06 8.81620
3.13920E+06 8.16260
3.14780E+06 6.80500
3.15250E+06 7.93580
3.16110E+06 7.95450
3.16420E+06 6.58860
3.16970E+06 8.57320
3.17370E+06 7.00030
3.17840E+06 7.19040
3.18550E+06 7.20160
3.19670E+06 7.42150
3.20000E+06 7.57030
3.21030E+06 8.03480
3.21325E+06 7.99866
3.21325E+06 7.99864
3.21670E+06 7.95380
3.22080E+06 8.00210
3.23290E+06 8.26750
3.24100E+06 8.79990
3.24510E+06 7.51900
3.25000E+06 9.01628
3.25080E+06 9.16640
3.25900E+06 9.62000
3.27140E+06 7.78580
3.27220E+06 7.07060
3.27960E+06 9.46410
3.28630E+06 8.26000
3.29040E+06 8.52970
3.29630E+06 11.0020
3.30000E+06 9.74120
3.30460E+06 8.17300
3.31300E+06 10.7310
3.32150E+06 7.63320
3.32400E+06 8.09250
3.33160E+06 8.00480
3.33760E+06 8.09140
3.34350E+06 8.94240
3.34780E+06 8.00840
3.36070E+06 9.16120
3.36330E+06 8.33650
3.37710E+06 9.09950
3.38310E+06 8.05820
3.38580E+06 7.90210
3.39010E+06 7.15690
3.39710E+06 7.75790
3.40000E+06 7.81120
3.40320E+06 7.86980
3.41020E+06 7.05030
3.41900E+06 7.56860
3.42520E+06 7.90890
3.42790E+06 6.29220
3.43230E+06 6.41910
3.43680E+06 8.44430
3.44300E+06 8.31010
3.44830E+06 6.40660
3.45910E+06 8.64070
3.46540E+06 8.73460
3.46990E+06 7.37850
3.47530E+06 7.43290
3.48800E+06 9.35310
3.49196E+06 8.33317
3.49197E+06 8.33291
3.49710E+06 7.01160
3.50000E+06 6.89940
3.50350E+06 6.76430
3.51550E+06 7.95120
3.52560E+06 8.31770
3.53390E+06 7.62210
3.53670E+06 8.68560
3.54320E+06 8.03290
3.55540E+06 6.27560
3.56000E+06 8.41960
3.56570E+06 7.67770
3.57040E+06 7.99920
3.57700E+06 7.44180
3.57980E+06 7.90400
3.58640E+06 7.10440
3.59400E+06 8.46690
3.59880E+06 7.66750
3.60000E+06 7.68480
3.61700E+06 7.92990
3.62270E+06 6.56970
3.62850E+06 8.32270
3.63430E+06 6.78390
3.64210E+06 9.00920
3.64690E+06 7.31740
3.66060E+06 7.65970
3.67040E+06 8.27150
3.67630E+06 7.46760
3.69800E+06 8.13450
3.70000E+06 8.02330
3.70900E+06 7.52320
3.71500E+06 8.04760
3.72100E+06 7.45530
3.72500E+06 8.33430
3.72643E+06 7.78829
3.72643E+06 7.78790
3.72900E+06 6.80270
3.74510E+06 8.89470
3.75000E+06 8.50151
3.75830E+06 7.73690
3.76340E+06 8.05940
3.76650E+06 6.96530
3.77980E+06 9.15510
3.78800E+06 8.32260
3.79520E+06 8.43910
3.80000E+06 8.28530
3.80970E+06 7.97420
3.82850E+06 7.10980
3.83470E+06 7.96490
3.84840E+06 8.11960
3.85470E+06 6.91200
3.86960E+06 8.08590
3.88020E+06 7.90440
3.88560E+06 6.67560
3.89310E+06 7.50930
3.90000E+06 8.56020
3.90060E+06 8.65150
3.91680E+06 7.89250
3.92110E+06 7.05880
3.92760E+06 7.57450
3.93630E+06 7.86190
3.93881E+06 7.98075
3.93881E+06 7.98080
3.94730E+06 8.38270
3.95820E+06 7.79290
3.96558E+06 7.77835
3.96558E+06 7.77835
3.98017E+06 7.74956
3.98017E+06 7.74956
4.00000E+06 7.71040
4.01508E+06 8.03061
4.01508E+06 8.03063
4.01740E+06 8.08750
4.02840E+06 8.35050
4.03520E+06 7.55990
4.04880E+06 8.63490
4.05658E+06 7.65220
4.05658E+06 7.65209
4.05910E+06 7.35540
4.06462E+06 7.20288
4.06462E+06 7.20293
4.07015E+06 7.49020
4.07015E+06 7.49024
4.08780E+06 8.18220
4.08900E+06 7.53490
4.09580E+06 8.20020
4.09710E+06 8.32730
4.10000E+06 7.56320
4.10050E+06 7.43170
4.10521E+06 7.06033
4.10522E+06 7.06045
4.11450E+06 8.15160
4.12591E+06 8.38829
4.12592E+06 8.38828
4.12970E+06 8.35400
4.14532E+06 8.45007
4.14532E+06 8.45005
4.15200E+06 8.30060
4.15910E+06 7.53740
4.16108E+06 7.48337
4.16108E+06 7.48343
4.17340E+06 8.25740
4.17580E+06 7.63700
4.17917E+06 7.63985
4.17917E+06 7.63985
4.20000E+06 7.65810
4.20069E+06 7.65871
4.20069E+06 7.65871
4.20450E+06 7.66220
4.20570E+06 6.88610
4.22140E+06 7.88300
4.22580E+06 7.85294
4.22580E+06 7.85293
4.23140E+06 7.81460
4.23915E+06 7.76156
4.23915E+06 7.76155
4.24820E+06 7.69960
4.25000E+06 7.67694
4.25001E+06 7.67674
4.25001E+06 7.67672
4.25052E+06 7.66710
4.25052E+06 7.66707
4.25680E+06 7.47680
4.26050E+06 7.05960
4.27280E+06 7.81030
4.27413E+06 7.71794
4.27413E+06 7.71782
4.27890E+06 7.13180
4.27920E+06 7.15262
4.27920E+06 7.15272
4.28307E+06 7.54568
4.28307E+06 7.54579
4.29130E+06 8.43080
4.30000E+06 7.52970
4.30130E+06 7.39510
4.30880E+06 7.22250
4.31380E+06 7.93890
4.31701E+06 7.95770
4.31701E+06 7.95771
4.33894E+06 8.08627
4.33894E+06 8.08628
4.34417E+06 8.11688
4.34417E+06 8.11688
4.37960E+06 8.32688
4.37960E+06 8.32688
4.38220E+06 8.33960
4.40000E+06 7.87920
4.40416E+06 8.13394
4.40416E+06 8.13397
4.40530E+06 8.16220
4.40660E+06 7.30770
4.41830E+06 7.98310
4.42435E+06 7.95646
4.42436E+06 7.95645
4.43000E+06 7.93110
4.44345E+06 7.86919
4.44345E+06 7.86919
4.44650E+06 7.85510
4.45150E+06 7.83200
4.46555E+06 7.76757
4.46555E+06 7.76759
4.48380E+06 8.10550
4.48465E+06 8.05925
4.48465E+06 8.05911
4.48920E+06 7.43730
4.50000E+06 7.41120
4.50223E+06 7.40577
4.50223E+06 7.40577
4.51180E+06 7.38240
4.52520E+06 6.75580
4.53600E+06 7.43740
4.54550E+06 7.69370
4.56868E+06 7.67822
4.56868E+06 7.67821
4.57950E+06 7.58470
4.58640E+06 7.84730
4.59880E+06 7.84290
4.59920E+06 7.84559
4.59920E+06 7.84559
4.60000E+06 7.85100
4.62370E+06 8.01110
4.63236E+06 7.87780
4.63236E+06 7.87776
4.64844E+06 7.25740
4.64844E+06 7.25739
4.65580E+06 7.17450
4.66280E+06 7.68310
4.69670E+06 8.09380
4.69820E+06 7.36700
4.70000E+06 7.63410
4.70270E+06 8.03366
4.70270E+06 8.03367
4.71502E+06 8.19386
4.71502E+06 8.19379
4.72099E+06 7.76774
4.72099E+06 7.76764
4.72680E+06 7.22380
4.73385E+06 6.99435
4.73385E+06 6.99435
4.73423E+06 6.99341
4.73423E+06 6.99344
4.75000E+06 7.52800
4.76580E+06 8.06880
4.76720E+06 7.37370
4.77300E+06 7.88310
4.78510E+06 7.89765
4.78510E+06 7.89765
4.79500E+06 7.93010
4.80000E+06 7.96220
4.82000E+06 8.09020
4.83630E+06 7.45470
4.85343E+06 7.67344
4.85343E+06 7.67345
4.86256E+06 7.78444
4.86256E+06 7.78445
4.86770E+06 7.84380
4.88570E+06 7.29980
4.89940E+06 7.52830
4.90000E+06 7.55700
4.91450E+06 8.25080
4.92830E+06 7.43220
4.95280E+06 7.87580
4.96360E+06 7.53400
4.99310E+06 7.38840
5.00000E+06 7.41504
5.00183E+06 7.41432
5.00183E+06 7.41432
5.05006E+06 7.39441
5.05006E+06 7.39441
5.05007E+06 7.39441
5.10000E+06 7.36833
5.20000E+06 7.30624
5.25000E+06 7.26361
5.30000E+06 7.22059
5.40000E+06 7.13426
5.50000E+06 7.04400
5.60000E+06 6.95005
5.70000E+06 6.85682
5.75000E+06 6.80992
5.80000E+06 6.76255
5.81166E+06 6.75138
5.81166E+06 6.75138
5.90000E+06 6.66639
6.00000E+06 6.57185
6.10000E+06 6.48236
6.16442E+06 6.42878
6.16442E+06 6.42878
6.16442E+06 6.42877
6.20000E+06 6.40086
6.25000E+06 6.36304
6.30000E+06 6.32575
6.40000E+06 6.25232
6.40594E+06 6.24802
6.40594E+06 6.24802
6.50000E+06 6.18079
6.60000E+06 6.11133
6.67306E+06 6.06199
6.67306E+06 6.06199
6.70000E+06 6.04411
6.71232E+06 6.03601
6.71232E+06 6.03601
6.75000E+06 6.01145
6.80000E+06 5.97924
6.90000E+06 5.91685
7.00000E+06 5.85700
7.01024E+06 5.85102
7.01025E+06 5.85102
7.04404E+06 5.83164
7.04404E+06 5.83164
7.05851E+06 5.82343
7.05851E+06 5.82343
7.10000E+06 5.80027
7.16630E+06 5.76461
7.16630E+06 5.76461
7.16630E+06 5.76461
7.20000E+06 5.74708
7.21119E+06 5.74137
7.21119E+06 5.74136
7.25000E+06 5.72179
7.30000E+06 5.69728
7.35040E+06 5.67349
7.35040E+06 5.67349
7.36273E+06 5.66779
7.36273E+06 5.66778
7.40000E+06 5.65076
7.40361E+06 5.64915
7.40361E+06 5.64915
7.40895E+06 5.64681
7.40895E+06 5.64680
7.49078E+06 5.61132
7.49078E+06 5.61132
7.50000E+06 5.60739
7.50252E+06 5.60633
7.50252E+06 5.60633
7.52936E+06 5.59532
7.52936E+06 5.59532
7.60000E+06 5.56706
7.61779E+06 5.56014
7.61779E+06 5.56014
7.66904E+06 5.54089
7.66904E+06 5.54089
7.70000E+06 5.52965
7.74641E+06 5.51325
7.74641E+06 5.51325
7.75000E+06 5.51200
7.77288E+06 5.50416
7.77288E+06 5.50416
7.80000E+06 5.49506
7.81273E+06 5.49086
7.81273E+06 5.49086
7.81823E+06 5.48905
7.81823E+06 5.48905
7.86599E+06 5.47371
7.86599E+06 5.47371
7.88608E+06 5.46746
7.88609E+06 5.46746
7.89613E+06 5.46438
7.89613E+06 5.46438
7.90000E+06 5.46321
7.90297E+06 5.46231
7.90297E+06 5.46231
8.00000E+06 5.43400
8.03553E+06 5.42420
8.03553E+06 5.42420
8.04485E+06 5.42169
8.04485E+06 5.42169
8.04704E+06 5.42111
8.06394E+06 5.41663
8.06394E+06 5.41663
8.20000E+06 5.38236
8.25000E+06 5.37066
8.40000E+06 5.33800
8.49983E+06 5.31811
8.49983E+06 5.31811
8.49984E+06 5.31811
8.50000E+06 5.31808
8.53390E+06 5.31163
8.53390E+06 5.31163
8.53390E+06 5.31163
8.60000E+06 5.29946
8.73768E+06 5.27560
8.73768E+06 5.27560
8.73768E+06 5.27560
8.75000E+06 5.27356
8.80000E+06 5.26548
8.81144E+06 5.26368
8.81144E+06 5.26368
8.81144E+06 5.26368
8.93112E+06 5.24522
8.93112E+06 5.24522
8.93112E+06 5.24522
8.96990E+06 5.23943
8.96990E+06 5.23943
8.96990E+06 5.23943
9.00000E+06 5.23500
9.03723E+06 5.22962
9.03723E+06 5.22962
9.03723E+06 5.22962
9.04494E+06 5.22852
9.10023E+06 5.22072
9.10023E+06 5.22072
9.10023E+06 5.22072
9.12324E+06 5.21751
9.12324E+06 5.21751
9.12324E+06 5.21751
9.16344E+06 5.21197
9.16344E+06 5.21197
9.16344E+06 5.21197
9.18615E+06 5.20889
9.18615E+06 5.20889
9.18615E+06 5.20889
9.20000E+06 5.20702
9.25000E+06 5.20042
9.27337E+06 5.19738
9.27337E+06 5.19738
9.27337E+06 5.19738
9.30251E+06 5.19363
9.30251E+06 5.19363
9.30251E+06 5.19363
9.40000E+06 5.18137
9.40168E+06 5.18117
9.50000E+06 5.16947
9.60000E+06 5.15822
9.75000E+06 5.14268
9.80000E+06 5.13771
1.00000E+07 5.11995
1.05000E+07 5.09205
1.10000E+07 5.08655
1.15000E+07 5.09987
1.20000E+07 5.13974
1.25000E+07 5.19819
1.26936E+07 5.22202
1.29411E+07 5.25247
1.30000E+07 5.25979
1.35000E+07 5.32199
1.40000E+07 5.38500
1.41741E+07 5.40764
1.45000E+07 5.44958
1.49290E+07 5.50393
1.50000E+07 5.51282
1.55000E+07 5.57424
1.60000E+07 5.63400
1.65000E+07 5.68710
1.70000E+07 5.73307
1.75000E+07 5.77283
1.80000E+07 5.80400
1.85000E+07 5.82642
1.90000E+07 5.83888
1.95000E+07 5.84379
2.00000E+07 5.84400
2.05000E+07 5.84061
2.10000E+07 5.83377
2.15000E+07 5.82200
2.20000E+07 5.80500
2.23016E+07 5.79242
2.23017E+07 5.79242
2.25000E+07 5.78315
2.30000E+07 5.75643
2.35000E+07 5.72579
2.40000E+07 5.69200
2.45000E+07 5.65552
2.50000E+07 5.61656
2.55000E+07 5.57504
2.60000E+07 5.53100
2.65000E+07 5.48479
2.70000E+07 5.43679
2.75000E+07 5.38743
2.80000E+07 5.33700
2.85000E+07 5.28559
2.90000E+07 5.23342
2.95000E+07 5.18052
3.00000E+07 5.12700
3.00000E+07 5.12700
3.10000E+07 5.02411
3.20000E+07 4.92309
3.30000E+07 4.82607
3.39187E+07 4.74185
3.40000E+07 4.73466
3.50000E+07 4.65000
3.50995E+07 4.64201
3.51515E+07 4.63788
3.60000E+07 4.57502
3.70000E+07 4.51043
3.74999E+07 4.48137
3.80000E+07 4.45416
3.90000E+07 4.40449
4.00000E+07 4.36000
4.04626E+07 4.34147
4.10000E+07 4.32248
4.18482E+07 4.29773
4.20000E+07 4.29394
4.20051E+07 4.29381
4.30000E+07 4.27349
4.40000E+07 4.26039
4.44579E+07 4.25667
4.50000E+07 4.25400
4.60000E+07 4.25236
4.70000E+07 4.25445
4.80000E+07 4.26099
4.85721E+07 4.26700
4.90000E+07 4.27265
5.00000E+07 4.29000
5.02483E+07 4.29512
5.03737E+07 4.29775
5.10000E+07 4.31123
5.20000E+07 4.33346
5.30000E+07 4.35573
5.32286E+07 4.36074
5.40000E+07 4.37718
5.50000E+07 4.39700
5.52478E+07 4.40157
5.60000E+07 4.41459
5.70000E+07 4.43070
5.71919E+07 4.43373
5.72867E+07 4.43522
5.80000E+07 4.44657
5.90000E+07 4.46333
6.00000E+07 4.48200
6.02428E+07 4.48697
6.10000E+07 4.50387
6.20000E+07 4.52840
6.30000E+07 4.55394
6.36588E+07 4.57057
6.40000E+07 4.57895
6.50000E+07 4.60200
6.60000E+07 4.62377
6.60203E+07 4.62421
6.60883E+07 4.62569
6.70000E+07 4.64517
6.80000E+07 4.66525
6.90000E+07 4.68313
6.94797E+07 4.69069
7.00000E+07 4.69800
7.04047E+07 4.70312
7.10000E+07 4.71005
7.20000E+07 4.72054
7.30000E+07 4.73024
7.30081E+07 4.73031
7.32465E+07 4.73258
7.40000E+07 4.73983
7.50000E+07 4.75000
7.60000E+07 4.76108
7.66417E+07 4.76849
7.70000E+07 4.77267
7.80000E+07 4.78431
7.90000E+07 4.79556
7.93854E+07 4.79970
8.00000E+07 4.80600
8.10000E+07 4.81358
8.20000E+07 4.81686
8.22262E+07 4.81706
8.24340E+07 4.81708
8.30000E+07 4.81636
8.40000E+07 4.81258
8.50000E+07 4.80600
8.60000E+07 4.79744
8.61018E+07 4.79648
8.64077E+07 4.79351
8.70000E+07 4.78731
8.80000E+07 4.77546
8.90000E+07 4.76173
8.95981E+07 4.75257
8.96341E+07 4.75199
9.00000E+07 4.74600
9.10000E+07 4.72914
9.20000E+07 4.71222
9.30000E+07 4.69545
9.35752E+07 4.68593
9.40000E+07 4.67899
9.50000E+07 4.66300
9.60000E+07 4.64794
9.70000E+07 4.63370
9.80000E+07 4.61968
9.87045E+07 4.60961
9.89122E+07 4.60658
9.90000E+07 4.60529
1.00000E+08 4.59000
1.02000E+08 4.55416
1.03344E+08 4.52648
1.04000E+08 4.51220
1.06000E+08 4.46673
1.06643E+08 4.45174
1.08000E+08 4.42001
1.10000E+08 4.37400
1.11023E+08 4.35106
1.12000E+08 4.32936
1.14000E+08 4.28552
1.16000E+08 4.24240
1.18000E+08 4.19992
1.20000E+08 4.15800
1.22000E+08 4.11689
1.24000E+08 4.07641
1.26000E+08 4.03594
1.28000E+08 3.99496
1.30000E+08 3.95300
1.32000E+08 3.90947
1.34000E+08 3.86500
1.36000E+08 3.82088
1.38000E+08 3.77822
1.40000E+08 3.73800
1.42000E+08 3.69978
1.44000E+08 3.66260
1.46000E+08 3.62653
1.48000E+08 3.59164
1.50000E+08 3.55800