Pb-206(n,tot) ENDF/B-VII.1
Energy(eV) XS(b)
1.00000E-05 12.7347
1.25000E-05 12.5766
1.50000E-05 12.4598
2.00000E-05 12.2959
2.75000E-05 12.1400
3.50000E-05 12.0374
4.25000E-05 11.9633
5.00000E-05 11.9066
6.25000E-05 11.8358
7.50000E-05 11.7836
0.000100000 11.7103
0.000125000 11.6603
0.000150000 11.6234
0.000200000 11.5716
0.000275000 11.5223
0.000350000 11.4898
0.000425000 11.4664
0.000500000 11.4485
0.000625000 11.4261
0.000750000 11.4096
0.00100000 11.3864
0.00125000 11.3706
0.00150000 11.3589
0.00200000 11.3425
0.00275000 11.3269
0.00350000 11.3167
0.00425000 11.3093
0.00500000 11.3036
0.00625000 11.2965
0.00750000 11.2913
0.0100000 11.2839
0.0125000 11.2789
0.0150000 11.2752
0.0200000 11.2701
0.0253000 11.2663
0.0314750 11.2632
0.0376500 11.2609
0.0500000 11.2577
0.0625000 11.2554
0.0750000 11.2538
0.100000 11.2514
0.125000 11.2498
0.150000 11.2486
0.200000 11.2468
0.275000 11.2451
0.350000 11.2440
0.500000 11.2424
0.750000 11.2408
1.00000 11.2396
1.50000 11.2378
2.00000 11.2365
2.75000 11.2347
3.50000 11.2330
5.00000 11.2300
7.50000 11.2254
10.0000 11.2209
15.0000 11.2121
20.0000 11.2035
27.5000 11.1909
35.0000 11.1786
50.0000 11.1545
75.0000 11.1160
100.000 11.0793
150.000 11.0108
200.000 10.9482
237.500 10.9047
275.000 10.8637
312.500 10.8251
350.000 10.7888
425.000 10.7218
500.000 10.6615
625.000 10.5736
750.000 10.4981
875.000 10.4327
1000.00 10.3754
1500.00 10.2023
2000.00 10.0850
2339.21 10.0243
2678.42 9.97388
2848.03 9.95175
2932.83 9.94135
3017.63 9.93139
3102.43 9.92192
3187.24 9.91320
3229.64 9.90953
3272.04 9.90750
3293.24 9.90864
3303.84 9.91088
3314.44 9.91587
3325.04 9.92779
3330.34 9.94020
3335.64 9.96334
3338.29 9.98307
3340.94 10.0134
3343.59 10.0636
3346.24 10.1553
3347.56 10.2326
3348.89 10.3508
3350.21 10.5447
3351.54 10.8958
3352.20 11.1899
3352.86 11.6352
3353.53 12.3591
3354.19 13.6485
3354.52 14.7144
3354.85 16.3021
3355.18 18.8248
3355.51 23.1881
3355.85 31.7586
3356.01 39.5088
3356.18 52.0804
3356.34 74.7119
3356.43 93.3334
3356.51 120.532
3356.59 163.331
3356.67 234.096
3356.76 358.643
3356.84 581.407
3356.92 926.562
3357.00 1153.19
3357.08 922.502
3357.16 581.680
3357.21 428.150
3357.26 323.291
3357.36 198.660
3357.46 133.176
3357.56 96.2700
3357.66 73.3275
3357.76 58.4598
3357.96 40.8778
3358.17 31.2846
3358.37 25.5501
3358.77 19.2932
3359.17 16.1497
3359.57 14.3528
3359.97 13.2308
3360.37 12.4839
3361.17 11.5821
3361.98 11.0806
3362.78 10.7730
3363.58 10.5708
3365.18 10.3300
3366.79 10.1977
3368.39 10.1173
3370.00 10.0647
3373.21 10.0025
3376.41 9.96841
3382.83 9.93413
3389.25 9.91792
3395.67 9.90884
3408.50 9.89921
3434.17 9.89076
3459.84 9.88622
3511.18 9.87985
3562.52 9.87451
3665.19 9.86473
3767.87 9.85551
3870.55 9.84667
3973.23 9.83814
4178.58 9.82193
4589.29 9.79239
5000.00 9.76602
6250.00 9.69959
7500.00 9.64677
10000.0 9.56303
10430.0 9.55044
10645.0 9.54433
10752.5 9.54139
10806.2 9.54018
10833.1 9.54032
10846.5 9.54288
10853.2 9.55305
10856.6 9.59115
10858.3 9.73379
10858.7 9.87479
10859.1 10.2569
10859.3 10.7584
10859.5 12.0602
10859.6 13.7869
10859.7 17.5129
10859.8 21.5054
10859.8 29.3206
10859.9 38.1141
10859.9 47.4149
10859.9 71.3266
10859.9 116.335
10860.0 223.175
10860.0 168.356
10860.1 116.377
10860.1 71.2171
10860.1 47.2568
10860.2 29.1630
10860.2 20.3664
10860.3 16.8400
10860.4 13.2746
10860.5 11.8878
10860.7 10.6740
10860.9 10.2027
10861.7 9.71143
10863.4 9.58017
10866.8 9.54740
10873.6 9.53950
10887.0 9.53750
10914.0 9.53650
10968.0 9.53500
11075.9 9.53204
11183.9 9.52909
11237.8 9.52771
11264.8 9.52752
11278.3 9.52951
11285.1 9.53888
11288.4 9.57534
11290.1 9.70581
11290.6 9.82420
11291.0 10.1099
11291.2 10.4327
11291.4 11.1058
11291.6 12.8379
11291.7 14.9690
11291.8 18.9483
11291.9 24.7891
11292.0 28.4286
11292.1 24.8195
11292.2 18.9844
11292.3 15.5718
11292.4 13.4815
11292.5 11.5176
11292.7 10.7021
11292.9 10.2971
11293.3 9.92870
11293.6 9.77549
11295.0 9.59756
11297.9 9.54555
11303.6 9.53112
11315.0 9.52697
11337.8 9.52530
11383.5 9.52376
11474.7 9.52118
11657.2 9.51621
12022.3 9.50641
12752.4 9.48711
13482.5 9.46790
13847.5 9.45815
14030.0 9.45349
14121.3 9.45295
14144.1 9.45465
14166.9 9.46110
14178.3 9.47105
14189.7 9.50056
14195.5 9.54226
14198.3 9.58392
14201.2 9.65971
14204.0 9.81950
14205.4 9.97613
14206.9 10.2522
14208.3 10.8175
14209.0 11.3453
14209.7 12.2425
14210.4 13.9827
14210.8 15.5201
14211.1 17.8834
14211.5 22.0387
14211.8 29.6725
14212.0 36.3962
14212.2 46.6827
14212.4 62.9674
14212.6 87.4861
14212.8 135.339
14213.0 166.194
14213.2 136.249
14213.4 88.1573
14213.7 54.4410
14214.0 36.7898
14214.3 27.4725
14214.5 22.1182
14214.8 18.8033
14215.1 16.6236
14215.6 14.0407
14216.1 12.6336
14216.7 11.7859
14217.8 10.8667
14218.8 10.3974
14219.9 10.1285
14222.1 9.84856
14224.2 9.71203
14226.4 9.63585
14230.7 9.55749
14239.3 9.49912
14247.9 9.47772
14265.2 9.46148
14282.4 9.45521
14316.9 9.44987
14351.3 9.44724
14489.2 9.44148
14764.9 9.43260
15040.6 9.42339
15316.4 9.41287
15592.1 9.39954
15729.9 9.39073
15867.8 9.37905
15936.7 9.37137
16005.7 9.36164
16074.6 9.34863
16143.5 9.32992
16178.0 9.31690
16212.5 9.29984
16246.9 9.27633
16281.4 9.24162
16298.6 9.21711
16315.9 9.18473
16333.1 9.13988
16350.3 9.07349
16358.9 9.02663
16367.6 8.96488
16376.2 8.87974
16384.8 8.75499
16389.1 8.66779
16393.4 8.55406
16397.7 8.39959
16402.0 8.17861
16404.2 8.02728
16406.3 7.83547
16408.5 7.58242
16410.6 7.23917
16411.7 7.01689
16412.8 6.74944
16413.9 6.42640
16415.0 6.04620
16416.0 5.63049
16416.6 5.45878
16417.1 5.40120
16417.6 5.65930
16418.2 6.81684
16418.5 8.20162
16418.7 10.7156
16419.0 15.2991
16419.3 23.2099
16419.4 32.3182
16419.6 44.6492
16420.0 69.3947
16420.2 73.7026
16420.4 70.5391
16420.8 55.8826
16421.2 42.0065
16421.6 33.3836
16422.0 27.7942
16422.4 24.1864
16422.8 21.6128
16423.2 19.7892
16424.0 17.3149
16424.8 15.7566
16425.6 14.6950
16427.2 13.3529
16428.9 12.5456
16430.5 12.0092
16432.1 11.6278
16433.7 11.3447
16436.9 10.9482
16440.2 10.6867
16443.4 10.5003
16446.6 10.3617
16453.1 10.1683
16459.6 10.0400
16466.1 9.94877
16472.5 9.88052
16485.5 9.78522
16498.4 9.72181
16511.3 9.67656
16524.3 9.64261
16550.2 9.59499
16576.1 9.56314
16601.9 9.54026
16627.8 9.52298
16679.6 9.49848
16731.3 9.48180
16783.1 9.46959
16834.9 9.46016
16938.4 9.44631
17041.9 9.43636
17249.0 9.42232
17456.0 9.41219
17663.1 9.40403
18077.2 9.39070
18491.3 9.37942
18905.4 9.36930
19319.5 9.36030
19526.5 9.35738
19630.1 9.36006
19655.9 9.36386
19681.8 9.37449
19694.8 9.38859
19707.7 9.42642
19714.2 9.47645
19717.4 9.52500
19720.6 9.61111
19723.9 9.78956
19725.5 9.96176
19727.1 10.2632
19728.7 10.8775
19729.5 11.4561
19730.3 12.4481
19731.2 14.3659
19731.6 16.1042
19732.0 18.8414
19732.4 23.7913
19732.8 33.3970
19733.0 42.0380
19733.2 55.8430
19733.4 79.0471
19733.6 119.726
19733.8 186.971
19734.0 230.893
19734.2 188.522
19734.4 120.512
19734.7 76.1411
19734.9 51.4076
19735.1 37.6898
19735.3 29.5428
19735.6 24.3855
19735.8 20.9415
19736.3 16.8662
19736.7 14.5550
19737.2 13.1796
19738.1 11.6472
19739.0 10.8651
19739.9 10.4229
19741.7 9.96257
19743.6 9.74051
19745.4 9.61843
19749.0 9.49547
19756.3 9.40802
19763.6 9.37848
19778.2 9.36212
19785.5 9.37826
19789.2 9.46165
19790.1 9.54649
19791.0 9.77314
19791.4 10.0647
19791.9 10.7558
19792.1 11.5544
19792.3 13.2343
19792.5 14.9372
19792.6 17.6002
19792.7 22.3709
19792.8 31.8342
19792.9 45.8543
19793.0 54.7615
19793.1 46.1824
19793.2 32.2318
19793.3 23.3253
19793.4 18.5703
19793.6 14.0640
19793.8 12.1681
19794.0 11.2168
19794.4 10.3288
19794.8 9.96007
19795.6 9.65335
19796.4 9.53319
19799.7 9.40437
19806.1 9.36601
19819.1 9.35349
19844.9 9.34841
19896.6 9.34567
20000.0 9.34313
20935.9 9.32414
21403.8 9.31502
21637.8 9.31097
21754.8 9.31004
21813.2 9.31278
21842.5 9.32467
21857.1 9.36753
21860.8 9.40930
21864.4 9.52203
21866.3 9.67187
21868.1 10.0714
21869.0 10.5913
21869.9 11.8969
21870.4 13.4922
21870.6 14.9080
21870.8 17.0529
21871.1 20.9061
21871.3 28.3886
21871.4 35.3461
21871.5 45.3138
21871.6 61.2259
21871.7 88.4237
21871.9 136.641
21872.0 167.777
21872.1 137.622
21872.3 88.6524
21872.4 65.2181
21872.5 48.8780
21872.6 38.3049
21872.7 31.2672
21872.9 22.9707
21873.1 18.7093
21873.3 16.0361
21873.5 14.3460
21873.8 12.4539
21874.6 10.8426
21875.4 10.2066
21877.0 9.71757
21878.6 9.53821
21881.7 9.40593
21884.9 9.35950
21897.5 9.31561
21922.7 9.30560
21973.2 9.30306
22074.2 9.30119
22276.1 9.29770
22679.9 9.29085
23083.7 9.28475
23487.5 9.28031
23891.3 9.27977
24093.3 9.28275
24295.2 9.29035
24497.1 9.30732
24699.0 9.34615
24799.9 9.38406
24900.9 9.44889
24951.4 9.49943
25001.8 9.57066
25027.1 9.61780
25052.3 9.67630
25077.6 9.75469
25090.2 9.82462
25096.5 9.94847
25098.1 10.0523
25099.6 10.3171
25100.4 10.6560
25101.2 11.5159
25101.6 12.5789
25102.0 14.9802
25102.2 17.6362
25102.4 22.5463
25102.5 27.1144
25102.6 34.3868
25102.7 46.5125
25102.8 64.4576
25102.9 97.1447
25103.0 119.326
25103.1 97.7075
25103.2 64.6927
25103.3 48.1191
25103.4 38.3670
25103.5 26.8981
25103.7 20.9675
25103.8 17.5998
25104.1 14.1012
25104.4 12.5472
25104.9 11.1827
25105.5 10.6346
25106.6 10.2106
25107.8 10.0567
25112.3 9.91649
25121.4 9.91832
25139.6 10.0039
25157.8 10.1173
25176.0 10.2583
25212.4 10.6607
25248.8 11.3438
25285.2 12.6356
25303.3 13.7562
25321.5 15.5065
25339.7 18.4394
25357.9 23.8140
25367.0 28.2781
25376.1 34.8434
25385.2 44.7633
25394.3 59.7394
25407.2 90.6112
25420.0 111.999
25432.9 92.2001
25445.7 61.3673
25458.9 41.0933
25472.0 29.8598
25485.2 23.4403
25498.3 19.5414
25511.5 17.0264
25524.7 15.3226
25551.0 13.2412
25577.3 12.0710
25603.6 11.3504
25656.2 10.5462
25708.8 10.1306
25761.5 9.88765
25814.1 9.73294
25866.7 9.62808
25972.0 9.49834
26077.2 9.42342
26182.5 9.37568
26287.7 9.34300
26498.2 9.30143
26708.7 9.27600
26919.2 9.25853
27129.7 9.24544
27550.7 9.22624
27971.8 9.21179
28813.8 9.18893
29655.8 9.16948
30497.8 9.15143
31339.8 9.13402
31760.8 9.12545
31971.3 9.12121
32076.6 9.11920
32129.2 9.11848
32155.5 9.11891
32168.7 9.12167
32175.2 9.13177
32178.5 9.16727
32180.2 9.28641
32181.0 9.64407
32181.4 10.5025
32181.6 12.0169
32181.8 16.8024
32182.0 24.3806
32182.2 16.7176
32182.3 13.1547
32182.4 11.5124
32182.7 10.1947
32183.2 9.48698
32184.1 9.22301
32186.1 9.14336
32190.0 9.12235
32197.8 9.11728
32213.5 9.11603
32244.8 9.11533
32307.4 9.11412
32432.7 9.11162
32683.2 9.10654
33184.3 9.09630
34186.3 9.07576
34687.4 9.06615
34937.9 9.06234
35188.4 9.06066
35313.7 9.06169
35438.9 9.06540
35564.2 9.07444
35689.5 9.09533
35752.1 9.11510
35814.7 9.14725
35877.4 9.20258
35940.0 9.30620
35971.3 9.39402
36002.6 9.52723
36033.9 9.74148
36065.2 10.1141
36096.6 10.8397
36112.2 11.4860
36127.9 12.5190
36143.5 14.3050
36159.2 17.7283
36167.0 20.6964
36174.9 25.2504
36182.7 32.4867
36190.5 44.0703
36200.3 65.7586
36210.0 81.1029
36219.8 67.7346
36229.5 46.2496
36238.9 32.5661
36248.3 24.6817
36257.8 20.0282
36267.2 17.1378
36276.6 15.2406
36286.0 13.9393
36304.8 12.3250
36323.6 11.4025
36342.5 10.8272
36380.1 10.1761
36417.8 9.83400
36455.4 9.63129
36493.1 9.50059
36530.7 9.41103
36606.1 9.29866
36681.4 9.23265
36756.7 9.19000
36832.0 9.16048
36982.6 9.12264
37133.2 9.09975
37283.8 9.08605
37359.2 9.08660
37396.8 9.10488
37406.2 9.12349
37415.6 9.17323
37420.4 9.23840
37425.1 9.41013
37427.4 9.63268
37429.8 10.2011
37430.9 10.9050
37432.1 12.5599
37432.7 14.4168
37433.3 18.2471
37433.6 21.9390
37433.9 27.9391
37434.2 38.6709
37434.5 59.1710
37434.7 88.8541
37435.0 110.128
37435.3 90.3775
37435.5 60.0139
37435.7 44.5201
37435.9 34.5836
37436.1 27.7306
37436.3 23.3600
37436.7 17.9964
37437.1 15.1095
37437.9 12.3151
37438.6 11.0821
37440.2 10.0402
37441.7 9.62993
37444.8 9.31672
37447.9 9.20284
37454.1 9.12110
37460.3 9.09310
37485.1 9.06756
37534.7 9.06072
37633.9 9.05529
37832.4 9.04627
38229.2 9.03151
38626.0 9.01945
38824.4 9.01413
38923.6 9.01191
38973.2 9.01168
38998.0 9.01404
39010.4 9.02308
39016.6 9.05422
39019.7 9.16082
39021.2 9.50763
39022.0 10.5037
39022.4 12.7104
39022.6 15.9313
39022.8 24.3649
39022.9 33.5107
39023.0 39.6509
39023.1 33.5123
39023.2 24.2599
39023.4 15.5093
39023.6 12.3517
39024.0 10.3127
39024.8 9.41573
39026.4 9.11712
39029.6 9.03300
39036.0 9.01222
39048.7 9.00770
39074.2 9.00658
39125.1 9.00546
39227.0 9.00309
39430.8 8.99820
39838.4 8.98851
40246.1 8.97874
40449.9 8.97313
40551.8 8.96889
40602.7 8.96457
40628.2 8.96068
40640.9 8.96552
40647.3 9.01860
40650.5 9.26614
40651.3 9.51411
40652.1 10.1339
40652.5 10.8687
40652.9 12.4604
40653.3 16.7778
40653.5 22.0198
40653.7 32.2368
40653.8 46.5805
40654.0 57.2075
40654.2 48.0841
40654.3 33.9495
40654.5 24.2528
40654.7 19.0113
40655.0 14.0297
40655.4 11.9967
40655.7 11.0114
40656.4 10.0856
40657.1 9.68417
40658.5 9.34774
40659.9 9.21114
40665.4 9.05523
40676.4 9.00294
40698.6 8.98364
40742.8 8.97517
40831.2 8.97000
41008.1 8.96469
41361.8 8.95650
41715.5 8.94942
41892.4 8.94761
41980.8 8.95142
42025.0 8.96802
42047.1 9.02536
42052.7 9.07935
42058.2 9.22040
42061.0 9.40109
42063.7 9.85524
42065.1 10.4023
42066.5 11.6596
42067.2 13.0060
42067.9 15.6384
42068.2 18.0240
42068.6 21.6876
42068.9 27.9481
42069.2 38.3451
42069.6 55.7855
42070.0 67.9048
42070.4 56.3082
42070.8 38.4844
42071.1 28.3316
42071.4 22.0316
42071.7 18.1966
42072.1 15.7612
42072.7 13.0231
42073.4 11.6429
42074.7 10.3476
42076.0 9.79107
42078.6 9.33886
42081.2 9.16546
42086.5 9.03587
42091.7 8.98980
42112.7 8.94674
42154.6 8.93736
42238.5 8.93472
42406.2 8.93150
42741.6 8.92454
43412.4 8.90984
44754.0 8.87932
45424.9 8.86472
45760.3 8.85902
46095.7 8.85709
46263.4 8.85949
46431.1 8.86676
46598.8 8.88375
46766.5 8.92220
46850.4 8.95816
46934.2 9.01604
47018.1 9.11425
47101.9 9.29432
47185.8 9.66506
47227.7 10.0104
47269.6 10.5850
47311.5 11.6296
47332.5 12.4949
47353.5 13.7802
47374.4 15.7834
47395.4 19.0793
47416.3 24.8229
47437.3 35.1288
47458.7 51.8462
47480.0 64.0004
47501.4 54.1258
47522.7 37.7683
47542.1 27.7631
47561.4 21.7661
47580.8 18.1147
47600.1 15.7900
47638.8 13.1541
47677.5 11.7891
47716.3 10.9952
47755.0 10.4928
47832.4 9.91469
47909.8 9.60481
47987.2 9.41791
48064.6 9.29546
48142.0 9.21021
48296.9 9.10089
48451.7 9.03463
48606.5 8.99042
48761.4 8.95877
49071.0 8.91596
49380.7 8.88755
50000.0 8.84976
50487.1 8.82828
50974.2 8.81027
51948.4 8.77956
52435.6 8.76590
52922.7 8.75368
53166.2 8.74886
53409.8 8.74692
53531.6 8.74935
53653.3 8.76018
53714.2 8.77598
53744.7 8.79141
53775.1 8.81863
53805.6 8.87398
53820.8 8.92657
53836.0 9.01833
53851.2 9.20278
53858.8 9.37595
53866.4 9.67328
53874.0 10.2530
53877.9 10.7782
53881.7 11.6387
53885.5 13.2039
53887.4 14.5090
53889.3 16.4778
53891.2 19.6500
53893.1 25.0948
53895.0 35.3182
53895.9 43.7807
53896.9 55.7731
53900.0 105.168
53901.6 87.7331
53903.1 58.2115
53904.4 42.1182
53905.6 31.9340
53906.8 25.4781
53908.0 21.2813
53910.5 16.3774
53913.0 13.8188
53915.4 12.3263
53917.9 11.3938
53922.8 10.3398
53927.7 9.79242
53932.6 9.47534
53937.5 9.27558
53942.4 9.14264
53952.2 8.98254
53962.0 8.89426
53981.6 8.80642
54001.2 8.76643
54020.9 8.74528
54060.1 8.72508
54138.6 8.71142
54217.1 8.70643
54531.0 8.69697
55158.9 8.67977
56414.6 8.64107
57670.3 8.59677
58926.0 8.54434
60181.7 8.47841
61437.5 8.38775
62065.3 8.32575
62693.2 8.24425
63007.1 8.19240
63321.0 8.12975
63478.0 8.09319
63635.0 8.05239
63791.9 8.00780
63870.4 7.99005
63909.7 8.00734
63929.3 8.11585
63934.2 8.22619
63939.1 8.51744
63941.6 8.88527
63944.0 9.77018
63945.2 10.7743
63946.5 12.8483
63947.1 14.8578
63947.7 18.2163
63948.3 24.3319
63948.9 36.0779
63949.5 52.8915
63950.0 64.2256
63950.6 52.9186
63951.1 36.0992
63951.6 26.2392
63952.1 20.2767
63952.6 16.6703
63953.0 14.4255
63954.0 11.8446
63955.0 10.5402
63956.9 9.31868
63958.9 8.79288
63962.8 8.35845
63966.7 8.18797
63974.4 8.05548
63982.2 8.00465
64013.4 7.94458
64075.6 7.90722
64200.1 7.84960
64324.7 7.78693
64449.2 7.71518
64698.2 7.53299
64947.3 7.26917
65071.8 7.08684
65196.3 6.85104
65320.8 6.53408
65445.3 6.08556
65569.9 5.40395
65632.1 4.91276
65694.4 4.25651
65756.6 3.34778
65787.8 2.75958
65818.9 2.06110
65850.0 1.25980
65881.2 0.467728
65888.9 0.315192
65896.7 0.208838
65904.5 0.173976
65912.3 0.247795
65920.1 0.484314
65927.8 0.961423
65935.6 1.78963
65943.4 3.12079
65949.2 4.56429
65955.1 6.49038
65966.7 12.1413
65990.0 29.3281
66001.7 36.3626
66013.4 39.3168
66036.7 36.4768
66053.9 32.3133
66071.0 28.5891
66088.2 25.6019
66105.4 23.2638
66139.7 19.9590
66174.0 17.7995
66208.3 16.3032
66242.7 15.2152
66311.3 13.7536
66380.0 12.8320
66448.6 12.2295
66483.0 12.0347
66517.3 11.9681
66534.5 12.0623
66543.0 12.1947
66551.6 12.4541
66560.2 12.9955
66564.5 13.4951
66568.8 14.3157
66573.1 15.7845
66575.2 16.9918
66577.4 18.7662
66579.5 21.5334
66581.6 26.0712
66583.8 34.0910
66585.9 48.7271
66590.0 88.7759
66592.0 75.2591
66594.1 51.2939
66595.9 36.9123
66597.7 28.3465
66599.5 23.1932
66601.3 19.9674
66604.9 16.3545
66608.5 14.5344
66612.1 13.4958
66615.6 12.8528
66622.8 12.1268
66630.0 11.7444
66637.2 11.5141
66651.6 11.2513
66666.0 11.1009
66680.4 10.9976
66709.1 10.8518
66766.6 10.6503
66824.1 10.4963
66939.2 10.2561
67054.2 10.0718
67284.3 9.80395
67514.3 9.61747
67744.4 9.47962
67974.4 9.37318
68434.5 9.21845
68894.6 9.10975
69354.8 9.02672
69814.9 8.95522
70044.9 8.91627
70102.4 8.90630
70160.0 8.90313
70188.7 8.91598
70217.5 8.97909
70231.8 9.08291
70239.0 9.18988
70246.2 9.38244
70253.4 9.76702
70257.0 10.1138
70260.6 10.6677
70264.2 11.6222
70267.8 13.4131
70269.6 14.9330
70271.4 17.1905
70273.2 20.6725
70275.0 26.0064
70277.5 37.3118
70280.0 46.0032
70282.5 39.8904
70285.0 28.9556
70287.0 22.9530
70288.9 19.0527
70290.8 16.5023
70292.8 14.7859
70296.6 12.7295
70300.5 11.6056
70304.4 10.9267
70308.2 10.4872
70315.9 9.96809
70323.7 9.68222
70331.4 9.50690
70346.8 9.30855
70362.3 9.20258
70377.7 9.13793
70408.6 9.06412
70439.5 9.02331
70470.4 8.99723
70532.2 8.96502
70655.8 8.93037
70779.4 8.90918
71026.6 8.87962
71273.7 8.85683
72262.4 8.78908
74239.8 8.69665
76217.1 8.63023
77205.8 8.60648
77453.0 8.60396
77700.2 8.60742
77823.7 8.61607
77885.5 8.62520
77947.3 8.64166
78009.1 8.67514
78040.0 8.70667
78070.9 8.76107
78101.8 8.86897
78117.3 8.96930
78132.7 9.14038
78148.2 9.47293
78155.9 9.77426
78163.6 10.2707
78171.3 11.1820
78175.2 11.9531
78179.1 13.1347
78182.9 15.0715
78186.8 18.5352
78188.7 21.3540
78190.6 25.4429
78192.6 31.5266
78194.5 40.6368
78200.0 75.4739
78201.4 73.1545
78202.8 64.3314
78205.5 43.4556
78207.6 32.2342
78209.7 25.0505
78211.8 20.4648
78213.9 17.4520
78218.1 13.9569
78222.3 12.1265
78226.5 11.0656
78230.7 10.4021
78239.1 9.65656
78247.5 9.27346
78255.9 9.05301
78272.7 8.82489
78289.5 8.71717
78306.3 8.65893
78339.9 8.60256
78373.5 8.57794
78407.1 8.56543
78474.3 8.55404
78608.7 8.54657
78743.1 8.54330
79280.7 8.53301
79818.3 8.52426
79952.7 8.52423
80087.1 8.52932
80154.3 8.53862
80221.5 8.56642
80255.1 8.60462
80271.9 8.64192
80288.7 8.70820
80305.5 8.84356
80313.9 8.97174
80322.3 9.19251
80330.7 9.62223
80334.9 10.0085
80339.1 10.6364
80343.3 11.7543
80345.4 12.6686
80347.5 14.0168
80349.6 16.1048
80351.7 19.5300
80353.8 25.4960
80355.9 36.1395
80357.9 52.6922
80360.0 63.6987
80362.1 52.6280
80364.2 36.0652
80365.4 28.9431
80366.7 23.9096
80369.1 17.8702
80371.6 14.6755
80374.1 12.8364
80376.6 11.6931
80379.1 10.9446
80384.1 10.0578
80389.1 9.57449
80394.1 9.28459
80404.0 8.96909
80414.0 8.81091
80424.0 8.72071
80443.9 8.62727
80483.8 8.55740
80523.6 8.53191
80603.4 8.51257
80683.1 8.50475
81002.1 8.49187
81640.1 8.47576
82278.0 8.46174
82437.5 8.45957
82597.0 8.46072
82676.8 8.46590
82756.5 8.48424
82796.4 8.51123
82816.3 8.53837
82836.2 8.58758
82856.2 8.69050
82866.1 8.78988
82876.1 8.96390
82886.1 9.31118
82891.1 9.63122
82896.0 10.1632
82901.0 11.1460
82903.5 11.9769
82906.0 13.2447
82908.5 15.3012
82911.0 18.9025
82913.5 25.7970
82914.7 31.6147
82916.0 39.8518
82918.0 58.7864
82920.0 71.3938
82922.0 58.8215
82924.0 39.9861
82925.6 29.9768
82927.2 23.6332
82928.7 19.5598
82930.3 16.8607
82933.4 13.6818
82936.5 11.9944
82939.7 10.9979
82942.8 10.3675
82949.0 9.64496
82955.3 9.26311
82961.5 9.03814
82974.0 8.79694
82986.5 8.67722
82999.0 8.60925
83024.0 8.53868
83073.9 8.48513
83123.9 8.46484
83223.9 8.44830
83323.8 8.44070
83523.7 8.43185
83723.5 8.42529
84523.0 8.40172
84922.8 8.38883
85322.5 8.37313
85522.4 8.36287
85722.2 8.34905
85922.1 8.33224
85972.1 8.33473
86022.1 8.36580
86047.0 8.42633
86059.5 8.49251
86072.0 8.61631
86084.5 8.87303
86090.8 9.11087
86097.0 9.50001
86103.3 10.1879
86109.5 11.5266
86112.6 12.7013
86115.7 14.5054
86118.9 17.3788
86122.0 22.0052
86126.0 31.2216
86130.0 38.6443
86134.0 33.9942
86138.0 25.0755
86142.5 18.4663
86147.1 14.9040
86151.6 12.9114
86156.1 11.7158
86160.6 10.9458
86165.1 10.4234
86174.1 9.78052
86183.1 9.41266
86192.1 9.18162
86210.2 8.91531
86228.2 8.77118
86246.2 8.68301
86282.3 8.58293
86318.3 8.52877
86354.4 8.49523
86426.5 8.45609
86498.6 8.43387
86570.8 8.41936
86715.0 8.40102
87003.5 8.38086
87291.9 8.36870
87580.4 8.36035
87868.9 8.35589
88013.1 8.35670
88157.4 8.36435
88229.5 8.37688
88301.6 8.41327
88337.7 8.46322
88355.7 8.51226
88373.7 8.59999
88391.8 8.78083
88400.8 8.95368
88409.8 9.25345
88418.8 9.84386
88423.3 10.3801
88427.8 11.2583
88432.3 12.8464
88434.6 14.1596
88436.8 16.1194
88439.1 19.2209
88441.3 24.4055
88443.6 33.7234
88445.8 51.1471
88447.9 76.8301
88450.0 94.0496
88452.1 77.0210
88454.2 51.3005
88455.8 37.8002
88457.4 29.1501
88459.0 23.5831
88460.6 19.8886
88463.8 15.5413
88467.0 13.2219
88470.2 11.8552
88473.4 10.9874
88479.8 9.99331
88486.2 9.46913
88492.6 9.16006
88505.4 8.82958
88518.2 8.66617
88531.0 8.57371
88556.6 8.47856
88582.2 8.43324
88607.8 8.40836
88658.9 8.38386
88761.3 8.36855
88863.7 8.36706
88966.1 8.37151
89068.5 8.38068
89273.3 8.41732
89478.1 8.50213
89580.5 8.58599
89682.8 8.73328
89785.2 9.02490
89836.4 9.29107
89887.6 9.73120
89938.8 10.5376
89964.4 11.2190
89990.0 12.2590
90015.6 13.9546
90041.2 16.9606
90066.8 22.8741
90079.6 28.0160
90092.4 35.6355
90130.0 66.1900
90139.4 64.4841
90148.8 56.9883
90167.6 38.7406
90186.6 26.4958
90205.7 19.7550
90224.7 15.9616
90243.7 13.6934
90262.8 12.2536
90281.8 11.2917
90319.8 10.1372
90357.9 9.50255
90396.0 9.11906
90472.1 8.70045
90548.2 8.48882
90624.3 8.36608
90776.5 8.23192
90928.8 8.15697
91081.0 8.10297
91385.4 8.00698
91537.7 7.95192
91689.9 7.88403
91842.1 7.79389
91994.4 7.66411
92070.5 7.57395
92146.6 7.45624
92222.7 7.29546
92298.8 7.06211
92336.9 6.90065
92374.9 6.69178
92413.0 6.41109
92451.1 6.01435
92489.1 5.41246
92508.1 4.97964
92527.2 4.40246
92546.2 3.60424
92555.7 3.08653
92565.2 2.46856
92574.8 1.74375
92584.3 0.965369
92589.0 0.624332
92593.8 0.420985
92598.5 0.538023
92600.9 0.819143
92603.3 1.33175
92605.4 2.04623
92607.5 3.08182
92609.6 4.51583
92611.6 6.41636
92615.8 11.6822
92620.0 18.1620
92624.2 23.8207
92628.4 26.9368
92636.7 26.6276
92645.0 23.5486
92653.3 20.7391
92661.6 18.6043
92669.8 17.0155
92678.1 15.8148
92686.4 14.8864
92703.0 13.5589
92719.5 12.6638
92736.1 12.0234
92769.2 11.1721
92802.3 10.6341
92835.4 10.2640
92868.6 9.99418
92901.7 9.78875
92967.9 9.49672
93034.2 9.29906
93100.4 9.15630
93166.6 9.04827
93299.1 8.89542
93431.6 8.79217
93564.1 8.71752
93696.6 8.66086
93961.5 8.58025
94226.5 8.52592
94359.0 8.50589
94491.4 8.49220
94557.7 8.49103
94623.9 8.50386
94657.0 8.52849
94690.2 8.60268
94706.7 8.70403
94715.0 8.80184
94723.3 8.97274
94731.6 9.31118
94735.7 9.62022
94739.8 10.1306
94744.0 11.0594
94746.0 11.8360
94748.1 13.0060
94750.2 14.8709
94752.3 18.0560
94754.3 23.9314
94756.4 35.2323
94758.2 51.3084
94760.0 62.1072
94761.8 51.4430
94763.6 35.3244
94764.9 27.4211
94766.2 22.1699
94767.5 18.6812
94768.7 16.3069
94771.3 13.4395
94773.9 11.8750
94776.4 10.9331
94779.0 10.3282
94784.1 9.62866
94789.2 9.25494
94794.3 9.03337
94804.5 8.79447
94814.8 8.67504
94825.0 8.60679
94845.4 8.53532
94886.4 8.47954
94927.3 8.45693
95009.1 8.43579
95090.9 8.42383
95254.5 8.40712
95418.2 8.39387
95745.5 8.37178
96072.7 8.35315
96727.3 8.32217
97381.8 8.29640
98690.9 8.25309
100000 8.21482
100608 8.19899
100760 8.19674
100912 8.19894
100988 8.20625
101064 8.23133
101102 8.26791
101121 8.30458
101140 8.37098
101159 8.50944
101169 8.64280
101178 8.87604
101188 9.33937
101192 9.76968
101197 10.4682
101202 11.7761
101204 12.8831
101207 14.4838
101209 17.1576
101211 21.8034
101214 30.5748
101216 47.0221
101218 70.0444
101220 85.3862
101222 70.3033
101224 47.2620
101226 30.7371
101229 22.4478
101231 17.6871
101233 15.0032
101235 13.2314
101238 12.1027
101242 10.7107
101247 9.94304
101251 9.47678
101260 8.96431
101269 8.70412
101278 8.55422
101296 8.39696
101314 8.32026
101332 8.27702
101368 8.23217
101440 8.19743
101512 8.18325
101656 8.16952
101800 8.16105
102376 8.13332
102664 8.11863
102952 8.10747
103096 8.11359
103168 8.12856
103239 8.16524
103311 8.25804
103347 8.35508
103383 8.52924
103419 8.87046
103437 9.16924
103455 9.63265
103473 10.3907
103491 11.7142
103509 14.2002
103527 19.0742
103544 26.7623
103560 33.1961
103576 29.6652
103593 22.3412
103608 17.6411
103622 14.7631
103637 12.9863
103652 11.8469
103681 10.5247
103711 9.82771
103741 9.41261
103770 9.14580
103829 8.83021
103888 8.65533
103947 8.54657
104006 8.47331
104065 8.42105
104184 8.35169
104302 8.30797
104538 8.25561
104774 8.22471
105011 8.20369
105483 8.17546
106429 8.14061
107374 8.11644
109265 8.08421
109737 8.08197
110210 8.08892
110446 8.10277
110564 8.11676
110682 8.14132
110801 8.19003
110860 8.23495
110919 8.31085
110978 8.45769
111007 8.59106
111037 8.81204
111067 9.22664
111081 9.58776
111096 10.1551
111111 11.1397
111126 13.0401
111133 14.7443
111140 17.4623
111148 22.0557
111155 29.9834
111170 54.8680
111174 53.9044
111178 48.1036
111185 33.0688
111191 24.1922
111198 18.7988
111204 15.5247
111210 13.4868
111223 11.1940
111235 10.0432
111248 9.39652
111260 9.00181
111285 8.57060
111310 8.35575
111335 8.23636
111385 8.11747
111435 8.06424
111485 8.03706
111585 8.01272
111786 7.99888
111986 7.99511
112787 7.98777
113587 7.98034
113988 7.98000
114188 7.98797
114288 8.01032
114338 8.06720
114363 8.22333
114369 8.35542
114376 8.66205
114379 9.02415
114382 9.78889
114383 10.5919
114385 11.9687
114387 15.0406
114387 17.9339
114388 21.8891
114390 36.6509
114391 35.5530
114391 31.6564
114392 22.6484
114393 15.8582
114394 12.5900
114397 9.97000
114399 9.00888
114402 8.59851
114407 8.25288
114411 8.12544
114431 8.01133
114470 8.03615
114489 8.09776
114508 8.26627
114518 8.48591
114523 8.69571
114528 9.04729
114533 9.73838
114535 10.3391
114538 11.2950
114540 12.9419
114542 16.1024
114544 18.8559
114545 23.1106
114546 29.9468
114547 41.5370
114549 62.1372
114550 75.2559
114551 62.4294
114553 41.6736
114554 30.8658
114555 23.6917
114556 19.2377
114558 16.3657
114560 13.0847
114562 11.4369
114565 10.4325
114567 9.82596
114572 9.11736
114576 8.74600
114581 8.52787
114591 8.29536
114609 8.11586
114628 8.04916
114666 7.99966
114703 7.98197
114779 7.96917
114854 7.96467
115155 7.96105
115306 7.96272
115456 7.96909
115531 7.97737
115607 7.99728
115644 8.02076
115682 8.07653
115701 8.14286
115719 8.30278
115729 8.49306
115738 8.94119
115743 9.44890
115748 10.5427
115750 11.6731
115752 13.6546
115754 15.3816
115755 17.9878
115756 22.0781
115757 28.4956
115760 51.8239
115761 50.6473
115762 45.1434
115763 31.2949
115764 23.8277
115765 18.8817
115766 15.7427
115767 13.6962
115770 11.3486
115772 10.1786
115774 9.47004
115776 9.03393
115780 8.56150
115789 8.18462
115798 8.04908
115815 7.95781
115833 7.93111
115902 7.91726
116041 7.92201
116319 7.92512
116875 7.92230
117431 7.91771
117709 7.91825
117848 7.93170
117883 7.94718
117918 7.99174
117935 8.05323
117953 8.22116
117961 8.44078
117966 8.65081
117970 9.00121
117974 9.68835
117977 10.2978
117979 11.2162
117981 12.8597
117983 15.8155
117984 18.4595
117985 22.5160
117986 28.9663
117987 39.1942
117989 57.4316
117990 70.8788
117991 57.7588
117993 39.5392
117994 27.8403
117995 21.0606
117997 17.0793
117998 14.7666
118000 12.0460
118003 10.6607
118005 9.84339
118008 9.35783
118013 8.80936
118023 8.35330
118033 8.17612
118053 8.03803
118073 7.98617
118114 7.94682
118154 7.93211
118315 7.91589
118637 7.90915
119280 7.90437
119924 7.90351
120568 7.90767
121211 7.92034
121855 7.94887
122177 7.97357
122499 8.00933
122821 8.06360
122982 8.14242
123022 8.21614
123062 8.41896
123082 8.67472
123102 9.25734
123112 9.85322
123122 10.9053
123133 12.9601
123143 17.1319
123160 29.3108
123169 26.6896
123178 20.6223
123188 15.7231
123198 13.1389
123209 11.7047
123219 10.8463
123240 9.92119
123260 9.46633
123343 8.88273
123508 8.79117
123673 8.97810
123838 9.36513
124004 10.0895
124086 10.6883
124169 11.5742
124251 12.9519
124334 15.2301
124417 19.2734
124499 26.8421
124650 49.2723
124688 48.7125
124726 43.6939
124801 30.4124
124856 23.3800
124910 18.7815
124965 15.8045
125019 13.8542
125074 12.5657
125101 12.1161
125128 11.8008
125156 11.6705
125169 11.7260
125183 11.9353
125197 12.4507
125203 12.9247
125210 13.6655
125217 14.8662
125224 16.9136
125231 20.6170
125237 27.5352
125244 37.9184
125250 44.7537
125256 37.7321
125263 27.3186
125270 19.7041
125278 15.8732
125285 13.7754
125293 12.5574
125300 11.7721
125307 11.2467
125322 10.5851
125337 10.1902
125352 9.92510
125382 9.58031
125412 9.35353
125442 9.18452
125501 8.93656
125561 8.75563
125620 8.61479
125740 8.40785
125859 8.26343
125978 8.15785
126216 8.01619
126455 7.92738
126693 7.86759
127170 7.79321
127647 7.74867
128123 7.71827
129077 7.67659
130030 7.64579
130984 7.61922
132890 7.56988
134797 7.52026
136704 7.46827
137658 7.44277
138134 7.43176
138611 7.42451
139088 7.42757
139326 7.43888
139565 7.46607
139684 7.49140
139803 7.53147
139922 7.59780
140041 7.71578
140161 7.95164
140220 8.16739
140280 8.52341
140339 9.17012
140369 9.70980
140399 10.5215
140429 11.8129
140459 14.0134
140488 18.0604
140518 25.8274
140544 36.7814
140570 44.1717
140596 37.0371
140622 26.0380
140642 20.2906
140661 16.5914
140681 14.1955
140701 12.6038
140740 10.7498
140779 9.82773
140818 9.41683
140858 9.48850
140877 9.85728
140897 10.8051
140907 11.7883
140916 13.5584
140926 17.0695
140931 20.1451
140936 24.7606
140950 44.5934
140954 44.4039
140957 40.0705
140964 28.0107
140969 21.2180
140975 16.9828
140985 12.5687
140996 10.5773
141007 9.54645
141028 8.57550
141049 8.15128
141092 7.78521
141134 7.62546
141219 7.47517
141304 7.39857
141474 7.31373
141644 7.26209
141984 7.18166
142154 7.12688
142239 7.08540
142260 7.08273
142282 7.11919
142292 7.19722
142303 7.43248
142308 7.72389
142313 8.34619
142316 8.94448
142319 9.88610
142321 11.5615
142324 14.3884
142330 25.0632
142333 23.0245
142336 17.9111
142339 14.8306
142341 12.8560
142343 11.4861
142346 10.5911
142350 9.47234
142355 8.85714
142364 8.21064
142374 7.90080
142392 7.60939
142411 7.47566
142448 7.35165
142486 7.29268
142561 7.23298
142635 7.19987
142934 7.12573
143532 7.00940
144130 6.85628
144429 6.74723
144579 6.67902
144654 6.64443
144691 6.65251
144710 6.77355
144714 6.90490
144719 7.24122
144721 7.66938
144724 8.59932
144725 9.60513
144726 11.2910
144727 15.0761
144728 18.5560
144728 23.4621
144729 34.0917
144730 40.8358
144731 34.4827
144732 23.9744
144732 17.8633
144733 14.4230
144735 10.7253
144736 9.11812
144738 8.33669
144740 7.55713
144743 7.21012
144749 6.91400
144755 6.79141
144778 6.64309
144825 6.57050
144918 6.49145
145104 6.32864
145289 6.11471
145475 5.81167
145661 5.34806
145754 5.01164
145847 4.55938
145940 3.92407
145987 3.50473
146033 2.99355
146080 2.36771
146126 1.62432
146173 0.851428
146196 0.569902
146207 0.506066
146219 0.529867
146230 0.676867
146242 0.995001
146253 1.54261
146265 2.37396
146276 3.55857
146287 5.11618
146310 9.12987
146333 13.3632
146356 16.3803
146401 17.9170
146454 16.5097
146508 14.8824
146561 13.6241
146614 12.6943
146668 11.9985
146721 11.4653
146827 10.7128
146934 10.2135
147040 9.86370
147254 9.41767
147467 9.16269
147680 9.01957
147893 8.95529
148106 8.95852
148532 9.19264
148959 9.96488
149172 10.8141
149385 12.3912
149598 15.6241
149705 18.5322
149811 22.9801
150110 42.2231
150185 42.2086
150260 38.3252
150409 27.3080
150553 19.7901
150626 17.3144
150662 16.2977
150680 15.8675
150689 15.8723
150693 16.4679
150695 17.7339
150697 19.1412
150698 22.0147
150700 31.6388
150701 31.6044
150701 29.8112
150702 25.2498
150704 21.2099
150705 19.0744
150708 17.2192
150711 16.4505
150714 16.0475
150720 15.5926
150726 15.3204
150738 14.9517
150750 14.6701
150773 14.2046
150797 13.8061
150844 13.1321
150891 12.5909
150939 12.1798
150962 12.0414
150986 11.9805
151010 12.0776
151021 12.2519
151033 12.6049
151045 13.3304
151051 13.9735
151057 14.9745
151063 16.6182
151069 19.5116
151074 25.0422
151077 29.7580
151080 36.2317
151085 51.6401
151090 61.8316
151095 51.6820
151100 36.5133
151104 27.9590
151108 22.6354
151112 19.2913
151116 17.1098
151124 14.5772
151132 13.2444
151140 12.4390
151148 11.9169
151164 11.2924
151180 10.9268
151195 10.6838
151227 10.3623
151259 10.1412
151291 9.96835
151355 9.69749
151419 9.48247
151482 9.30305
151610 9.01505
151865 8.61545
151992 8.47080
152056 8.40706
152088 8.37624
152104 8.36381
152112 8.37979
152116 8.49438
152118 8.96612
152119 10.5226
152119 14.4037
152120 19.0062
152120 31.0798
152120 54.6464
152120 49.6288
152120 31.9165
152121 16.9968
152121 12.7181
152122 9.89931
152123 8.84511
152126 8.51032
152131 8.39952
152142 8.35576
152164 8.32595
152207 8.28729
152295 8.22277
152469 8.11486
152818 7.95041
153166 7.82029
153341 7.74599
153428 7.68798
153471 7.67197
153482 7.70492
153493 7.83805
153499 8.02946
153504 8.47399
153507 8.92587
153509 9.72009
153512 11.2096
153515 14.1336
153520 23.8887
153523 22.2758
153525 17.6265
153527 15.2333
153529 13.6006
153532 11.5647
153535 10.4160
153538 9.75381
153545 9.02618
153551 8.66348
153564 8.31115
153577 8.14636
153603 7.99242
153629 7.91940
153680 7.84663
153732 7.80785
153835 7.76190
153938 7.73151
154145 7.68726
154352 7.65287
155178 7.55432
156831 7.42942
158483 7.33736
158897 7.31671
159310 7.30180
159516 7.30545
159620 7.31741
159723 7.34729
159826 7.42303
159878 7.50276
159930 7.64724
159981 7.93805
160007 8.20022
160033 8.62122
160059 9.34688
160084 10.7215
160097 11.8954
160110 13.6696
160123 16.4447
160136 20.8649
160170 39.4564
160179 39.6499
160187 36.2538
160204 26.3248
160215 21.3409
160226 17.8446
160247 13.6959
160269 11.5409
160291 10.3225
160312 9.56733
160334 9.07239
160377 8.47940
160421 8.15039
160464 7.94753
160550 7.71770
160637 7.59472
160724 7.51954
160897 7.43313
161070 7.38458
161243 7.35277
161416 7.32962
161503 7.32021
161546 7.31708
161568 7.32168
161579 7.34982
161584 7.46279
161587 7.85574
161588 9.09652
161589 12.0901
161589 15.9649
161590 26.4002
161590 45.8499
161590 26.7625
161591 16.2031
161591 12.2593
161592 9.19520
161593 7.90905
161596 7.49042
161601 7.36259
161612 7.32500
161634 7.31267
161678 7.30576
161765 7.29763
161939 7.28450
162287 7.26293
162985 7.22867
164379 7.17396
167167 7.08024
169955 6.99145
170652 6.97031
171349 6.95302
171698 6.95054
171872 6.95442
172047 6.96699
172221 7.00144
172308 7.03864
172395 7.10753
172482 7.25065
172526 7.38494
172569 7.60977
172613 8.02568
172635 8.37667
172656 8.90573
172678 9.75778
172700 11.2261
172722 13.9814
172744 19.5263
172780 36.6332
172789 36.9903
172798 33.8880
172817 24.4693
172831 18.9274
172845 15.3410
172859 13.0514
172873 11.5578
172901 9.81455
172929 8.89595
172957 8.35700
172985 8.01752
173042 7.62975
173098 7.42640
173154 7.30931
173266 7.19773
173379 7.18080
173435 7.20947
173491 7.28188
173548 7.44745
173576 7.60581
173604 7.87243
173632 8.36426
173646 8.78057
173660 9.40695
173674 10.4201
173688 12.1549
173702 15.4271
173716 21.8568
173728 30.8426
173740 36.9626
173752 31.0733
173764 22.0450
173772 17.4879
173781 14.4949
173790 12.5283
173798 11.2149
173815 9.62949
173832 8.76829
173849 8.25472
173866 7.92571
173901 7.54511
173935 7.34191
173969 7.22055
174037 7.08796
174106 7.01965
174174 6.97899
174311 6.93289
174448 6.90671
174585 6.88896
174859 6.86413
175406 6.82788
175680 6.81174
175817 6.82099
175851 6.84405
175885 6.92057
175902 7.02941
175919 7.31552
175928 7.66139
175936 8.41154
175941 9.16769
175945 10.5153
175949 13.1631
175951 15.3929
175953 18.6748
175960 35.2956
175962 35.6260
175963 32.5448
175967 23.6567
175969 18.3705
175972 14.9532
175975 12.7691
175977 11.3782
175982 9.68195
175987 8.79835
175993 8.26632
175998 7.93337
176008 7.54574
176028 7.20818
176049 7.06711
176090 6.94927
176131 6.89994
176213 6.85673
176295 6.83656
176459 6.81527
176623 6.80220
176951 6.78323
177279 6.76752
178592 6.71170
179904 6.65690
180560 6.63167
180724 6.62918
180888 6.63777
180970 6.65802
181052 6.72344
181093 6.81460
181114 6.90210
181134 7.05233
181155 7.33883
181165 7.59005
181175 7.97961
181186 8.64032
181196 9.84456
181201 10.8717
181206 12.3718
181211 14.6738
181216 18.2783
181230 34.3377
181234 34.7444
181237 31.8927
181244 22.9861
181251 16.3379
181258 12.7656
181266 10.7783
181273 9.59834
181280 8.84299
181287 8.34623
181302 7.74655
181316 7.41126
181331 7.20750
181359 6.98026
181388 6.86192
181417 6.79233
181475 6.71628
181590 6.65277
181706 6.62469
181936 6.59594
182167 6.57811
182629 6.55085
183090 6.52676
184937 6.43339
185860 6.38726
186784 6.35169
187245 6.35375
187707 6.41695
187938 6.52850
188053 6.64084
188168 6.83584
188284 7.20402
188399 7.99461
188457 8.75983
188515 10.0730
188572 12.5142
188630 17.3906
188730 33.2695
188755 33.8394
188780 31.1674
188830 22.5556
188886 15.7647
188941 12.1594
188997 10.2005
189053 9.05506
189108 8.33329
189164 7.85164
189275 7.26830
189387 6.93817
189498 6.73008
189721 6.48231
189944 6.33429
190055 6.27870
190166 6.23364
190278 6.20718
190333 6.21079
190389 6.24207
190445 6.33845
190472 6.43957
190500 6.61221
190528 6.91981
190556 7.49566
190584 8.65719
190612 11.1452
190660 19.5023
190672 19.8065
190684 18.6300
190709 14.8427
190733 11.9765
190757 10.2459
190781 9.18767
190805 8.51303
190854 7.73347
190902 7.31524
190950 7.06115
190998 6.89249
191095 6.68411
191192 6.55987
191288 6.47656
191481 6.36878
191867 6.24688
192254 6.16947
193026 6.05603
193798 5.95963
194571 5.86488
195343 5.76285
195729 5.70460
196116 5.63462
196502 5.53655
196598 5.50792
196695 5.49819
196743 5.53166
196792 5.67592
196816 5.87335
196840 6.30330
196864 7.34711
196876 8.41512
196888 10.1909
196920 18.4004
196936 17.6651
196952 14.0992
196963 12.0137
196975 10.5414
196997 8.77466
197020 7.84292
197043 7.30050
197088 6.71880
197133 6.42507
197315 6.01033
197496 5.90204
197677 5.89098
197858 5.97451
197949 6.07905
198040 6.26924
198130 6.63693
198176 6.95408
198221 7.44282
198266 8.24362
198311 9.66535
198357 12.4511
198379 14.8582
198402 18.3632
198470 31.2451
198504 26.1466
198538 18.1666
198561 14.4197
198584 11.9117
198607 10.2231
198629 9.07219
198675 7.67201
198721 6.90311
198767 6.44130
198812 6.14353
198904 5.79523
198995 5.60399
199086 5.48477
199269 5.34153
199452 5.25202
199635 5.18408
200000 5.07154
200342 4.97268
200513 4.92714
200598 4.94497
200620 4.99074
200641 5.13103
200652 5.31649
200662 5.75996
200668 6.24547
200673 7.16789
200676 7.98879
200678 9.20673
200681 11.2422
200684 14.4827
200690 28.4248
200692 28.8853
200693 26.5048
200697 19.1263
200700 13.5104
200703 10.4776
200707 8.75210
200710 7.70872
200717 6.57252
200723 6.02100
200736 5.50962
200750 5.28705
200776 5.09288
200803 5.00853
200856 4.92926
200909 4.88745
201015 4.83410
201121 4.79334
201545 4.65249
202394 4.37258
202819 4.24495
203031 4.20200
203243 4.19866
203455 4.29349
203562 4.42461
203668 4.67521
203774 5.16685
203880 6.20926
203933 7.17659
203986 8.73622
204039 11.3702
204092 15.8681
204151 23.6051
204210 28.9690
204269 24.0406
204328 16.3546
204367 12.7661
204405 10.2875
204483 7.36305
204560 5.82690
204637 4.92782
204714 4.34632
204792 3.93940
204946 3.39123
205101 3.01337
205255 2.71093
205564 2.19262
206182 1.21360
206491 0.741853
206800 0.372657
206936 0.289792
207073 0.294423
207141 0.341482
207209 0.425824
207345 0.732183
207481 1.26724
207618 2.07745
207890 4.56771
208435 10.5275
208980 12.7691
209585 12.3032
210190 11.2940
210795 10.4019
211399 9.68693
212004 9.11073
212609 8.63195
212912 8.41854
213214 8.21856
213365 8.12389
213516 8.03722
213592 8.00406
213668 8.00066
213705 8.03952
213743 8.18648
213762 8.39078
213772 8.58165
213781 8.89157
213791 9.44698
213800 10.5302
213805 11.5144
213809 13.0278
213814 15.4885
213819 19.5337
213824 26.8366
213830 31.9125
213836 27.4133
213841 20.3068
213845 17.1839
213848 14.9585
213855 12.2810
213862 10.8196
213868 9.97812
213875 9.44030
213882 9.08616
213895 8.65251
213909 8.40755
213922 8.25388
213949 8.07470
214003 7.90707
214057 7.82050
214165 7.71286
214273 7.63263
214489 7.49454
214705 7.36593
215136 7.11413
215568 6.85699
216432 6.28356
216863 5.93737
217079 5.73813
217187 5.64221
217241 5.66272
217255 5.73034
217268 5.93037
217275 6.18296
217282 6.73987
217285 7.31040
217288 8.30032
217292 10.3239
217293 12.1147
217295 14.8197
217300 28.6940
217301 29.5205
217303 27.4804
217305 19.9226
217308 13.8923
217311 10.6854
217313 8.96173
217316 7.98961
217322 6.93629
217327 6.43997
217338 5.98516
217349 5.78622
217371 5.60367
217394 5.51226
217438 5.40033
217482 5.31337
217570 5.14886
217593 5.12196
217615 5.15034
217626 5.23915
217637 5.48904
217642 5.76740
217648 6.26362
217653 7.20706
217659 9.07049
217670 16.4596
217673 16.8851
217676 15.9934
217681 12.8117
217685 10.9971
217689 9.70929
217696 8.12011
217704 7.24335
217711 6.72649
217726 6.15418
217741 5.85477
217770 5.54164
217800 5.37167
217860 5.16637
217919 5.02148
218038 4.76193
218097 4.59496
218127 4.46185
218142 4.40782
218149 4.60776
218153 5.22550
218155 6.13900
218157 8.12107
218160 15.3602
218162 15.0058
218163 12.0388
218166 8.44675
218169 6.90994
218176 5.78494
218182 5.36121
218188 5.14503
218200 4.92334
218212 4.80721
218237 4.67327
218261 4.58664
218359 4.34861
218555 3.94073
218947 3.01322
219338 1.83339
219730 0.565923
219818 0.366557
219905 0.256300
219949 0.248378
219993 0.280477
220036 0.359736
220080 0.492890
220168 0.948349
220255 1.68792
220430 3.99624
220780 9.37242
221130 11.8018
221376 12.1071
221623 11.9607
221869 11.6607
222115 11.3292
222608 10.7214
223101 10.2315
223593 9.84316
224086 9.53125
225071 9.06199
226057 8.72319
227042 8.46337
228027 8.25485
228520 8.17081
228643 8.15914
228766 8.17012
228828 8.20640
228889 8.32435
228920 8.48138
228936 8.62489
228951 8.85802
228966 9.26695
228982 10.0650
228990 10.7700
228997 11.8756
229005 13.6985
229013 16.7747
229030 30.0222
229034 30.9816
229039 29.0676
229048 21.9315
229058 15.9079
229068 12.8327
229078 11.2200
229088 10.3070
229098 9.73723
229109 9.36314
229129 8.92008
229149 8.67461
229170 8.52488
229210 8.35566
229292 8.20974
229373 8.14469
229536 8.08121
229699 8.04915
229862 8.03765
229943 8.04408
230024 8.06808
230106 8.13318
230146 8.20168
230187 8.32537
230228 8.57407
230248 8.80194
230269 9.17379
230289 9.84372
230299 10.3945
230309 11.1996
230319 12.4601
230330 14.5341
230340 18.1599
230350 24.6235
230360 34.8549
230370 42.0046
230380 35.5016
230390 25.2614
230400 18.6633
230410 14.9594
230420 12.8004
230429 11.4701
230439 10.5973
230449 10.0089
230469 9.28427
230488 8.87221
230508 8.61836
230547 8.33248
230587 8.18219
230626 8.09260
230704 7.99299
230783 7.93875
230861 7.90376
231018 7.85808
231333 7.80011
231647 7.75604
232275 7.68125
232903 7.61542
233531 7.55724
233845 7.53237
234159 7.51317
234474 7.50706
234631 7.51569
234788 7.54292
234945 7.61432
235023 7.68821
235102 7.81937
235180 8.07590
235220 8.30262
235259 8.65976
235298 9.26592
235337 10.3874
235357 11.3328
235377 12.7301
235396 14.8599
235416 18.1153
235443 24.7395
235470 29.4289
235497 25.2901
235524 18.6771
235547 14.8803
235570 12.5463
235593 11.0968
235616 10.1634
235662 9.08833
235708 8.52555
235754 8.19632
235800 7.98716
235892 7.74500
235983 7.61352
236075 7.53249
236167 7.47773
236259 7.43800
236442 7.38298
236626 7.34501
236993 7.29108
237361 7.24982
237728 7.21405
238462 7.14976
239931 7.03105
240666 6.97421
240849 6.96318
241033 6.96269
241125 6.97830
241217 7.03940
241263 7.12815
241286 7.21357
241308 7.35785
241331 7.62691
241343 7.85425
241354 8.19467
241366 8.74248
241377 9.67988
241389 11.4226
241400 14.8912
241420 27.2774
241425 28.2760
241430 26.6059
241440 19.9345
241449 15.1461
241458 12.3274
241467 10.6805
241477 9.67023
241486 9.01578
241495 8.57071
241513 8.02396
241532 7.71409
241550 7.52129
241587 7.30286
241624 7.18631
241661 7.11587
241734 7.03640
241881 6.96455
242028 6.92856
242322 6.88525
242617 6.85374
243205 6.80001
243793 6.74951
244970 6.64794
246147 6.53988
248500 6.28401
249089 6.20779
249677 6.12760
249971 6.08994
250266 6.06724
250413 6.07877
250486 6.10242
250560 6.15466
250633 6.27473
250670 6.39308
250707 6.59745
250744 6.98948
250762 7.33135
250780 7.86256
250799 8.75583
250817 10.3907
250826 11.7449
250836 13.7347
250845 16.7311
250854 21.1924
250867 30.5861
250880 37.2468
250893 31.3592
250906 21.9344
250917 16.4934
250928 13.1621
250939 11.1021
250950 9.78604
250973 8.27193
250995 7.48371
251017 7.02499
251039 6.73504
251083 6.40170
251127 6.22212
251172 6.11271
251260 5.98627
251348 5.91299
251437 5.86212
251614 5.78775
251967 5.67098
252321 5.55826
253029 5.30037
253736 4.96193
254444 4.48450
255151 3.75722
255505 3.23594
255859 2.55586
256212 1.68016
256566 0.692577
256655 0.480960
256745 0.323370
256834 0.253556
256878 0.264995
256923 0.315453
256968 0.411681
257012 0.559648
257102 1.03350
257191 1.76743
257280 2.75103
257459 5.19081
257637 7.52956
257994 10.0185
258298 10.4178
258601 10.2529
258905 9.94270
259209 9.62435
259816 9.08522
260424 8.68135
261031 8.37632
261638 8.14019
262246 7.96265
262398 7.93648
262549 7.94308
262625 7.98695
262663 8.03763
262701 8.13053
262739 8.31479
262758 8.47721
262777 8.72983
262796 9.15257
262815 9.91854
262834 11.4685
262844 12.8617
262853 14.9949
262880 26.5597
262887 27.7538
262894 26.3594
262907 20.0417
262918 16.0050
262928 13.4271
262939 11.8188
262949 10.7933
262970 9.61998
262992 9.01341
263013 8.66028
263034 8.43834
263076 8.18203
263118 8.04240
263161 7.95612
263245 7.85437
263414 7.75211
263583 7.69204
263921 7.60800
264258 7.54217
264596 7.48635
264934 7.44206
265103 7.42969
265272 7.44037
265356 7.47433
265441 7.58055
265483 7.72021
265504 7.84778
265525 8.05696
265546 8.43172
265557 8.74116
265567 9.19432
265578 9.90536
265589 11.0661
265599 13.1239
265610 16.8349
265620 22.5922
265630 26.7621
265640 23.1370
265650 17.2114
265661 13.1506
265672 10.9971
265683 9.79846
265694 9.08436
265705 8.62765
265716 8.32510
265738 7.95958
265760 7.75562
265782 7.63132
265825 7.49214
265913 7.37481
266000 7.32348
266175 7.27133
266350 7.23872
266699 7.18843
267049 7.14520
267398 7.10778
267748 7.08756
267923 7.10211
268098 7.18474
268185 7.30877
268272 7.61731
268316 7.95446
268360 8.60728
268382 9.17795
268403 10.0554
268425 11.4718
268447 13.8465
268500 25.2993
268513 26.5319
268527 25.2328
268553 19.1468
268572 15.5262
268591 13.0811
268609 11.4768
268628 10.4087
268666 9.13710
268703 8.45447
268778 7.78165
268853 7.46683
269004 7.16911
269154 7.00846
269304 6.87331
269454 6.69616
269529 6.54869
269604 6.28093
269642 6.03246
269680 5.58221
269698 5.18523
269717 4.53506
269726 4.03008
269736 3.32025
269745 2.30983
269755 1.03541
269762 0.489221
269766 1.09969
269770 2.64608
269778 7.17990
269786 9.66105
269793 10.2257
269801 10.1256
269817 9.61852
269832 9.20464
269848 8.91987
269879 8.60964
269910 8.53311
269941 8.68537
269956 8.88940
269972 9.23994
269987 9.84159
270003 10.9153
270018 12.9536
270033 16.9595
270047 22.6897
270060 26.8275
270073 23.2107
270087 17.3554
270096 14.5683
270104 12.6812
270122 10.4837
270140 9.36640
270158 8.73554
270175 8.34658
270193 8.08946
270228 7.77920
270264 7.60181
270299 7.48844
270370 7.35180
270441 7.27075
270511 7.21576
270653 7.14277
270794 7.09377
270936 7.05679
271219 7.00139
271784 6.92338
272350 6.86298
273482 6.75425
274048 6.68195
274190 6.65279
274331 6.60903
274473 6.53171
274543 6.50506
274561 6.54146
274579 6.67578
274588 6.84253
274596 7.16681
274605 7.84038
274614 9.31682
274630 15.3861
274634 16.0152
274638 15.5251
274646 13.1382
274654 11.2009
274661 9.96506
274669 9.17795
274676 8.65783
274691 8.03678
274706 7.69689
274736 7.34543
274767 7.17109
274827 7.00138
274887 6.91886
275007 6.83721
275128 6.79580
275369 6.75371
275609 6.73742
275850 6.74702
275971 6.77020
276091 6.82058
276211 6.93276
276272 7.04023
276332 7.22123
276392 7.55356
276422 7.83107
276452 8.24642
276482 8.90012
276512 9.99259
276542 11.9400
276572 15.5264
276601 21.0714
276630 25.0875
276659 21.7255
276688 16.1930
276714 12.8381
276740 10.8335
276766 9.61828
276792 8.84946
276844 7.97826
276895 7.53063
276947 7.27103
276999 7.10782
277103 6.92104
277207 6.82259
277311 6.76559
277415 6.73204
277519 6.71470
277727 6.72526
277934 6.84687
278038 7.02979
278142 7.49195
278194 8.01829
278246 9.10188
278272 10.1174
278298 11.7949
278324 14.7702
278350 20.1995
278375 28.6439
278400 34.7603
278425 29.5758
278450 21.0545
278466 17.2002
278482 14.5022
278513 11.3100
278544 9.64750
278575 8.69867
278607 8.11267
278638 7.72710
278701 7.26767
278763 7.01334
278826 6.85680
278951 6.67733
279202 6.51017
279452 6.41725
279703 6.34205
279953 6.27321
280078 6.25262
280141 6.25686
280204 6.28592
280266 6.37047
280329 6.58997
280360 6.81044
280391 7.17710
280423 7.80124
280454 8.87708
280540 14.8765
280562 15.5167
280583 15.0859
280626 12.8264
280664 11.0639
280702 9.87661
280740 9.09589
280779 8.56727
280855 7.92300
280931 7.55835
281007 7.32823
281083 7.17173
281235 6.97345
281388 6.85328
281540 6.77261
281845 6.67171
282149 6.61789
282302 6.60778
282454 6.61639
282606 6.66474
282683 6.72174
282759 6.82605
282835 7.02946
282911 7.47256
282949 7.90385
282987 8.64462
283025 10.0240
283063 12.8048
283130 23.6876
283147 24.9937
283163 23.8650
283197 18.1307
283217 15.0389
283238 12.8309
283259 11.3061
283280 10.2443
283321 8.93609
283362 8.20555
283404 7.76019
283445 7.46902
283528 7.12255
283611 6.92984
283694 6.80977
283859 6.67013
284025 6.59129
284190 6.53967
284522 6.47318
285184 6.39472
285846 6.34073
287171 6.25535
288496 6.17998
291145 6.02894
292470 5.94351
292801 5.92355
293133 5.91684
293298 5.93554
293381 5.96259
293464 6.01773
293547 6.13657
293588 6.24727
293629 6.42756
293671 6.74085
293712 7.33592
293733 7.84395
293754 8.61220
293774 9.81966
293795 11.7673
293823 16.3146
293850 22.3508
293864 23.7167
293878 22.7275
293905 17.2844
293934 12.6989
293964 10.1902
293993 8.81219
294022 8.00043
294052 7.48758
294081 7.14387
294139 6.72584
294198 6.48813
294257 6.33868
294374 6.16368
294491 6.06477
294608 6.00017
294842 5.91629
295311 5.80906
295779 5.71451
296248 5.59789
296482 5.51824
296716 5.40987
296950 5.24612
297067 5.12513
297185 4.95571
297302 4.69853
297360 4.51130
297419 4.25718
297477 3.89162
297536 3.32848
297565 2.91997
297594 2.38010
297624 1.66708
297653 0.810662
297667 0.440947
297682 0.292411
297696 0.661878
297703 1.14813
297710 1.86886
297724 3.89783
297739 6.07998
297767 8.57972
297784 8.96174
297801 8.96367
297835 8.60303
297869 8.18865
297903 7.83867
297937 7.55477
297970 7.32430
298038 6.97381
298106 6.71536
298174 6.52390
298208 6.46895
298241 6.49895
298258 6.59918
298275 6.83901
298292 7.39305
298309 8.68620
298340 14.3644
298348 15.0452
298356 14.7069
298371 12.6193
298384 11.0379
298397 9.93379
298409 9.17432
298422 8.64885
298448 7.98396
298473 7.59402
298524 7.16069
298575 6.92480
298677 6.66654
298778 6.52048
298982 6.34905
299186 6.24447
299593 6.11367
300000 6.02916
300783 5.91925
301566 5.83941
303132 5.71067
304698 5.57907
305089 5.53494
305480 5.47360
305676 5.42813
305872 5.36046
306068 5.25528
306117 5.23490
306166 5.26123
306190 5.33552
306214 5.52931
306239 6.04178
306251 6.57085
306263 7.45878
306300 13.0506
306309 13.7526
306318 13.4596
306337 11.4932
306358 9.47428
306380 8.28366
306402 7.57599
306423 7.13212
306445 6.83280
306467 6.62203
306510 6.34671
306553 6.17739
306597 6.06357
306683 5.92067
306770 5.83434
306856 5.77603
307030 5.70074
307376 5.61747
307722 5.56692
309108 5.44420
310493 5.35419
311186 5.31568
311533 5.30039
311706 5.29768
311792 5.30608
311836 5.33405
311857 5.41198
311868 5.63013
311873 6.21327
311876 7.52809
311878 9.83734
311879 17.2190
311880 29.1682
311881 24.4816
311881 17.2364
311882 11.4774
311883 8.89086
311884 6.73415
311887 5.70392
311893 5.34885
311905 5.26694
311928 5.25878
311975 5.26318
312070 5.26569
312258 5.26417
312635 5.26505
312823 5.27381
313012 5.29685
313106 5.32122
313200 5.37148
313247 5.42529
313294 5.54641
313318 5.68450
313341 5.99294
313353 6.32343
313365 6.97772
313371 7.57195
313377 8.53514
313383 10.1933
313388 13.0818
313400 21.1287
313406 18.2041
313412 13.3661
313418 9.91051
313425 8.13424
313432 7.18213
313438 6.63837
313451 6.07456
313464 5.81337
313490 5.59613
313517 5.51871
313569 5.48320
313621 5.50143
313726 5.60847
313831 5.81418
313936 6.20535
313988 6.53829
314041 7.04495
314093 7.86035
314145 9.26724
314198 11.8964
314250 17.0926
314295 24.5354
314340 30.0879
314385 25.6543
314430 18.0966
314467 13.7849
314504 11.1111
314542 9.43342
314579 8.34695
314653 7.09262
314728 6.43439
314802 6.04886
314877 5.80374
315026 5.51971
315175 5.36525
315324 5.26981
315622 5.15788
315920 5.09206
316218 5.04619
316814 4.98137
317410 4.93691
317708 4.92322
318006 4.92050
318304 4.94257
318453 4.97486
318602 5.03924
318751 5.17486
318825 5.30006
318900 5.50444
318974 5.86504
319049 6.57548
319086 7.21028
319123 8.21108
319160 9.86764
319198 12.6690
319280 21.1060
319321 18.1952
319362 13.1947
319403 9.93193
319444 8.09565
319485 7.03741
319526 6.39239
319567 5.97401
319608 5.69026
319689 5.34095
319771 5.14214
319853 5.01771
320016 4.87349
320180 4.79268
320343 4.73982
320670 4.67010
320997 4.62039
321324 4.57860
321977 4.50328
323285 4.35171
323939 4.26576
324102 4.24563
324266 4.23787
324347 4.25421
324429 4.32781
324470 4.43397
324511 4.69074
324531 4.96599
324552 5.48160
324562 5.91798
324572 6.57330
324582 7.59608
324592 9.24761
324606 13.1892
324620 18.7595
324627 20.2449
324634 19.5550
324648 14.5995
324662 10.5001
324675 8.20352
324689 6.92455
324703 6.16963
324717 5.68643
324731 5.36189
324759 4.96698
324786 4.74143
324814 4.59945
324870 4.43168
324925 4.33492
324981 4.26929
325092 4.17589
325314 4.00455
325425 3.88803
325480 3.91343
325508 4.20259
325522 4.68573
325536 5.85498
325560 11.1444
325566 11.8875
325572 11.6802
325585 9.88533
325592 8.73700
325600 7.84443
325616 6.68870
325632 6.02129
325648 5.61103
325679 5.14498
325710 4.89543
325773 4.63677
325836 4.50379
326088 4.28690
326591 4.12818
327094 4.02250
327346 3.98686
327409 3.99900
327472 4.06561
327503 4.16662
327535 4.41630
327551 4.68687
327566 5.19369
327582 6.25939
327590 7.25381
327598 8.81693
327609 12.7595
327620 18.2657
327626 19.7341
327631 19.0681
327642 14.3406
327649 11.7669
327655 9.90005
327668 7.62844
327682 6.42651
327695 5.74328
327708 5.31538
327721 5.03362
327747 4.69230
327773 4.49835
327799 4.37619
327851 4.23322
327955 4.09962
328060 4.03298
328268 3.95799
328372 3.93963
328425 3.97179
328451 4.14139
328464 4.69448
328470 6.02326
328474 8.25480
328475 10.6072
328477 15.0673
328478 22.1185
328480 27.2959
328482 23.2761
328483 16.1579
328485 10.6097
328487 7.99375
328491 5.82803
328495 5.01392
328499 4.62791
328515 4.14158
328547 3.97276
328611 3.90898
328739 3.86861
328995 3.81841
329507 3.73325
330531 3.57108
332580 3.23092
334628 2.85847
335652 2.69840
336164 2.75230
336292 2.86225
336420 3.14675
336484 3.46563
336548 4.10480
336580 4.68516
336612 5.62117
336644 7.21900
336676 10.0389
336740 17.9413
336772 15.1571
336804 10.2567
336825 7.95779
336846 6.39454
336888 4.61498
336930 3.73279
336972 3.24699
337056 2.76482
337140 2.54069
337476 2.23072
338148 2.00450
338820 1.82571
339156 1.74920
339324 1.74825
339366 1.77750
339408 1.86974
339429 1.99198
339450 2.29304
339460 2.63721
339471 3.36480
339476 4.07809
339481 5.28969
339486 7.56369
339489 9.44514
339491 12.1114
339500 23.2349
339504 19.4023
339509 12.7592
339512 9.21116
339515 6.99507
339522 4.60050
339528 3.45773
339534 2.85916
339547 2.27878
339560 2.02280
339586 1.80581
339612 1.71735
339663 1.64245
339714 1.60731
339920 1.53663
340126 1.49960
340177 1.50627
340229 1.54968
340254 1.61910
340280 1.80966
340293 2.04683
340306 2.58432
340312 3.15510
340319 4.20961
340325 6.43470
340328 8.49122
340331 11.6831
340336 18.1159
340340 22.9771
340344 19.2350
340349 12.7416
340351 9.68596
340354 7.63298
340360 5.16014
340365 3.88287
340371 3.16774
340382 2.42234
340392 2.07432
340414 1.76397
340436 1.63201
340480 1.51954
340524 1.47018
340611 1.42241
340699 1.39682
340874 1.37121
341049 1.37478
341225 1.42850
341400 1.60441
341487 1.80592
341575 2.19442
341663 3.04025
341706 3.86276
341750 5.25804
341803 8.42853
341890 16.2384
341934 13.5217
341977 8.73191
342010 6.20562
342043 4.58225
342076 3.53993
342109 2.85224
342175 2.04347
342241 1.61080
342373 1.18473
342505 0.981989
342769 0.780447
343032 0.668967
343296 0.593765
343560 0.553681
343692 0.564813
343757 0.591715
343823 0.651047
343889 0.782957
343922 0.907680
343955 1.11214
343988 1.47318
344021 2.16923
344038 2.77434
344054 3.69905
344071 5.15699
344087 7.45488
344109 12.0494
344130 15.5030
344152 12.9486
344173 8.51342
344192 5.87287
344210 4.24108
344228 3.21747
344247 2.54991
344284 1.77420
344320 1.36185
344357 1.11679
344394 0.959883
344468 0.776747
344615 0.621206
344762 0.571911
344910 0.585614
344983 0.624186
345057 0.703753
345131 0.871774
345167 1.02680
345204 1.28111
345241 1.73472
345278 2.64643
345296 3.47752
345315 4.82037
345333 7.10987
345351 11.1249
345390 22.9116
345409 19.0531
345429 12.2728
345443 8.74030
345457 6.41520
345471 4.88858
345485 3.86616
345514 2.63777
345542 1.97165
345570 1.57514
345599 1.32196
345655 1.03197
345712 0.881543
345768 0.796591
345882 0.717547
346108 0.699550
346334 0.753211
346787 0.967367
347240 1.29702
348131 2.29290
349021 3.76923
349912 5.67270
350135 6.23567
350358 6.93067
350469 7.42307
350580 8.19637
350636 8.82328
350692 9.78855
350747 11.4123
350803 14.2930
350910 22.1427
350964 19.6530
351017 15.1905
351069 12.3443
351121 10.7397
351172 9.82070
351224 9.27127
351327 8.69710
351431 8.42708
351637 8.15938
351844 7.93933
352670 5.98544
352730 5.76361
352892 5.12390
353054 4.44069
353378 3.04827
353701 1.81086
354025 0.920310
354187 0.637483
354349 0.465602
354511 0.398595
354673 0.425930
354834 0.534542
354996 0.710341
355320 1.20913
355701 1.94525
356082 2.75112
356273 3.16936
356463 3.60857
356558 3.84966
356654 4.13729
356701 4.33474
356749 4.65955
356773 4.96574
356796 5.57665
356808 6.17354
356820 7.25353
356826 8.15898
356832 9.47777
356838 11.5273
356844 14.6314
356860 25.8334
356868 22.1851
356876 15.8087
356882 12.5709
356888 10.4122
356893 8.98124
356899 8.02663
356910 6.86349
356922 6.24723
356944 5.67233
356967 5.45215
357012 5.35823
357058 5.42886
357103 5.56864
357148 5.75288
357239 6.24100
357330 6.93117
357421 7.93816
357511 9.47975
357602 11.8996
357716 16.4865
357830 20.0156
357900 19.1868
357970 16.6953
358058 13.4954
358178 10.6024
358298 9.03842
358418 8.18388
358538 7.69818
358778 7.24338
359019 7.08775
359499 7.06564
359979 7.14605
360459 7.22916
360939 7.27945
361420 7.25254
361540 7.21828
361660 7.16289
361780 7.11154
361810 7.13583
361840 7.23868
361870 7.58015
361885 7.98270
361900 8.72597
361940 13.4913
361950 14.2861
361960 14.2222
361980 12.7008
361997 11.3875
362015 10.4555
362032 9.82327
362049 9.38649
362083 8.84554
362118 8.53743
362187 8.22344
362255 8.09923
362324 8.10626
362359 8.17685
362393 8.32829
362427 8.63140
362462 9.25738
362479 9.81228
362496 10.6628
362513 11.9944
362530 14.0607
362555 18.6214
362580 22.0720
362630 15.8005
362648 13.6586
362666 12.2032
362685 11.2154
362703 10.5322
362739 9.68183
362776 9.20930
362812 8.94903
362849 8.87705
362867 8.95764
362885 9.22199
362895 9.50517
362904 9.99021
362913 10.8705
362922 12.5679
362931 15.9057
362940 20.9733
362945 22.5666
362949 22.1548
362958 17.7091
362967 14.1424
362975 12.0683
362984 10.8799
362992 10.1658
363009 9.37821
363026 8.98127
363060 8.59458
363094 8.40742
363162 8.21897
363229 8.11840
363365 8.00382
363501 7.93390
363772 7.83887
363907 7.82565
363941 7.85581
363975 7.96276
363992 8.10308
364009 8.41045
364026 9.20408
364034 10.1038
364043 11.8083
364051 15.2303
364060 20.3752
364064 21.9694
364069 21.6307
364077 17.4640
364083 14.6730
364090 12.7932
364096 11.5521
364102 10.7184
364114 9.71925
364126 9.18126
364151 8.64282
364175 8.38891
364224 8.15581
364273 8.04923
364371 7.94819
364469 7.89727
364665 7.83992
364861 7.80310
365645 7.70080
367212 7.51116
368780 7.28288
369171 7.21521
369563 7.14002
369955 7.05763
370053 7.04329
370151 7.05597
370200 7.10244
370249 7.25532
370274 7.45346
370298 7.89814
370310 8.34110
370323 9.10216
370335 10.5080
370347 13.2098
370359 17.4995
370370 20.7597
370382 18.5120
370393 14.5355
370403 12.1213
370413 10.6244
370423 9.66872
370433 9.04691
370453 8.31130
370473 7.91293
370513 7.51234
370552 7.31724
370632 7.12139
370712 7.00835
370871 6.80945
370950 6.67746
370990 6.68392
371010 6.91856
371020 7.29163
371030 8.14240
371050 12.7752
371055 13.5756
371060 13.5383
371070 12.0906
371081 10.5488
371092 9.56602
371103 8.94627
371114 8.54490
371135 8.06610
371157 7.79973
371200 7.51557
371244 7.36656
371330 7.20850
371417 7.12080
371763 6.94459
372456 6.74469
373842 6.39220
374535 6.20727
375228 6.02963
375575 5.96859
375748 5.96255
375921 5.99583
376094 6.11856
376181 6.25246
376268 6.48649
376354 6.91747
376441 7.78697
376484 8.56875
376527 9.80651
376571 11.8554
376614 15.3210
376710 26.0874
376758 22.5474
376806 16.1028
376836 13.1789
376866 11.1329
376925 8.70268
376985 7.43375
377044 6.70581
377103 6.24853
377163 5.94056
377282 5.55263
377401 5.31218
377519 5.13979
377757 4.88340
378233 4.47478
378708 4.07190
379659 3.12971
380610 1.95144
381168 1.21582
381725 0.622102
382004 0.467338
382143 0.445669
382283 0.469091
382422 0.543207
382561 0.673053
382840 1.11852
383082 1.74254
383325 2.70953
383446 3.46165
383567 4.65466
383688 6.98177
383749 9.15781
383809 12.6812
383950 23.9720
384021 20.8247
384091 14.8920
384145 11.7024
384199 9.66013
384306 7.53634
384414 6.62170
384521 6.20339
384736 5.95156
384844 6.08735
384898 6.41846
384951 7.42571
385030 11.9754
385070 12.8298
385109 11.5176
385162 9.78334
385215 8.81238
385321 7.96380
385534 7.50182
385959 7.41291
386172 7.43910
386385 7.48812
386491 7.54112
386597 7.67265
386651 7.83213
386677 7.97226
386704 8.19173
386730 8.56172
386757 9.23830
386783 10.6086
386797 11.8199
386810 13.6108
386830 17.6631
386850 20.8182
386870 18.6509
386890 14.6991
386913 11.7278
386937 10.1706
386960 9.31744
386983 8.81208
387030 8.27447
387076 8.00989
387123 7.85840
387170 7.76254
387263 7.64854
387449 7.53502
387635 7.46659
388008 7.35350
388380 7.23416
389870 6.54207
391360 5.28048
392850 2.94574
393950 0.872636
394225 0.583623
394363 0.510003
394500 0.489541
394638 0.524099
394775 0.613148
395050 0.940888
396150 3.22529
397250 5.09078
397820 5.69719
398390 6.13702
398675 6.32812
398818 6.43063
398960 6.55458
399103 6.73709
399174 6.88007
399245 7.09838
399317 7.47359
399388 8.21987
399424 8.90961
399459 10.0426
399495 12.0331
399530 15.6740
399600 26.1213
399635 22.9844
399670 17.0950
399711 12.6337
399752 10.3596
399794 9.14578
399835 8.44377
399876 8.00785
399917 7.72122
400000 7.38337
400115 7.15479
400230 7.04298
400459 6.94850
400689 6.91619
400918 6.90422
401378 6.89491
401837 6.88069
402755 6.78464
402985 6.73096
403214 6.65392
403444 6.57484
403501 6.58736
403559 6.66744
403616 6.94232
403645 7.25799
403673 7.81791
403760 12.0929
403782 12.9314
403803 13.0014
403847 11.7574
403878 10.7467
403910 9.96829
403973 8.98405
404035 8.43839
404098 8.10734
404224 7.73551
404350 7.53586
404601 7.32685
404853 7.21908
405104 7.16086
405230 7.15029
405356 7.16121
405481 7.21896
405544 7.28734
405607 7.41381
405670 7.66528
405701 7.88634
405733 8.23083
405764 8.80158
405796 9.81201
405827 11.7662
405843 13.4195
405858 15.8017
405910 26.1289
405936 23.0880
405962 17.3562
405982 14.1127
406003 12.0426
406023 10.7122
406044 9.82929
406085 8.78657
406126 8.22392
406167 7.88668
406208 7.66784
406290 7.40754
406372 7.26104
406454 7.16815
406618 7.05743
406782 6.99880
406946 6.99100
407028 7.03278
407110 7.17896
407151 7.36550
407192 7.77589
407212 8.17766
407233 8.87071
407253 10.1587
407274 12.6819
407310 19.4407
407328 17.3976
407346 13.5699
407364 11.0105
407382 9.55004
407400 8.69825
407418 8.17399
407453 7.58935
407489 7.28888
407525 7.10902
407561 6.98882
407632 6.82802
407775 6.57678
407846 6.42224
407882 6.41950
407900 6.62433
407909 6.92532
407918 7.55017
407940 11.7929
407946 12.6296
407951 12.7109
407962 11.5393
407979 9.77371
407996 8.80706
408012 8.27169
408029 7.94571
408062 7.57819
408096 7.37891
408163 7.16747
408229 7.05406
408363 6.92772
408497 6.85216
409031 6.67633
410100 6.41309
411168 6.08416
411703 5.81558
411836 5.71547
411970 5.59180
412103 5.48159
412137 5.49564
412170 5.58183
412204 5.84777
412237 6.57188
412268 8.21937
412300 10.7875
412316 11.6247
412332 11.7242
412363 10.5867
412402 9.08801
412441 8.15286
412480 7.58256
412519 7.21272
412597 6.76943
412675 6.51298
412986 6.03355
413609 5.58072
414232 5.21009
414387 5.12462
414543 5.05879
414621 5.05229
414699 5.11311
414738 5.22192
414777 5.49885
414796 5.80110
414816 6.37437
414825 6.86987
414835 7.61078
414845 8.76240
414854 10.5694
414880 17.1394
414893 15.1635
414906 11.3971
414916 9.26066
414926 7.91700
414936 7.05378
414947 6.49143
414967 5.82905
414988 5.47517
415029 5.12218
415069 4.95322
415151 4.78688
415233 4.69947
415397 4.60914
415561 4.60334
415725 4.73867
415888 5.21166
415970 5.74252
416052 6.70259
416134 8.51697
416216 12.0386
416370 22.0784
416447 19.0636
416524 13.3734
416590 9.92683
416689 6.97700
416789 5.42250
416888 4.50161
416988 3.89286
417186 3.10675
417385 2.57932
417783 1.82165
418180 1.26521
418578 0.878548
418975 0.683895
419373 0.695818
419770 0.893253
419946 1.04620
419990 1.12086
420034 1.28691
420056 1.48634
420078 1.94413
420089 2.42345
420100 3.31084
420111 5.12007
420117 6.71698
420122 9.08884
420131 14.7838
420140 19.3216
420149 16.6498
420158 11.5442
420163 9.14398
420169 7.41316
420180 5.29619
420190 4.13954
420201 3.45398
420223 2.72533
420245 2.37120
420289 2.06149
420332 1.94883
420420 1.90753
420507 1.95212
420856 2.33114
421554 3.22550
422950 4.66884
423682 5.20527
424414 5.67894
424780 5.95777
425146 6.38973
425329 6.76557
425512 7.41134
425695 8.69020
425787 9.82663
425878 11.5469
426140 18.2696
426271 16.3943
426402 12.7368
426524 10.3935
426647 9.00851
426708 8.54531
426769 8.19472
426799 8.06892
426830 8.02095
426845 8.08179
426860 8.33519
426868 8.66372
426876 9.34650
426883 10.9678
426887 12.6161
426891 15.3825
426896 20.6874
426900 24.8403
426905 22.1514
426909 17.1539
426913 14.4145
426916 12.6301
426923 10.5781
426929 9.55153
426936 8.97805
426949 8.36879
426963 8.06391
426989 7.75168
427016 7.58273
427069 7.37859
427123 7.24351
427229 7.05498
427336 6.92216
427549 6.74039
427763 6.61524
428189 6.39754
428403 6.25010
428509 6.22736
428563 6.39524
428589 6.66548
428616 7.25106
428648 8.81024
428680 11.3038
428696 12.1609
428712 12.3050
428744 11.2563
428774 10.1409
428803 9.33725
428832 8.78889
428862 8.41097
428920 7.94038
428979 7.66992
429096 7.38584
429214 7.25058
429331 7.18101
429449 7.13428
429507 7.09148
429566 6.97055
429595 6.82170
429625 6.52042
429654 5.87361
429683 4.48514
429717 1.92754
429733 1.18641
429750 1.36465
429783 2.95150
429817 4.22904
429845 4.88034
429872 5.29934
429900 5.58233
429928 5.78037
429983 6.03416
430039 6.18496
430150 6.35010
430261 6.43487
430482 6.51617
430704 6.55260
431148 6.58223
431591 6.59106
432035 6.59062
432479 6.58326
432922 6.57555
433033 6.58431
433144 6.62787
433200 6.69855
433255 6.89549
433283 7.13919
433311 7.67774
433324 8.21573
433338 9.15266
433352 10.9455
433366 14.5221
433378 19.9155
433390 24.2531
433402 21.5630
433414 16.3734
433423 13.4757
433433 11.5774
433442 10.3367
433451 9.51040
433470 8.51529
433488 7.97555
433507 7.65523
433525 7.45759
433562 7.26228
433599 7.24722
433636 7.46167
433655 7.74719
433673 8.30553
433692 9.46460
433701 10.4959
433710 12.0085
433725 15.6574
433740 18.6065
433755 16.8463
433770 13.4262
433781 11.5540
433792 10.2982
433803 9.45809
433814 8.88549
433836 8.17692
433858 7.77642
433902 7.36066
433947 7.15698
434035 6.96289
434124 6.87158
434301 6.78442
434477 6.74210
434831 6.69924
435185 6.67604
435893 6.64725
436601 6.62494
438016 6.57252
438724 6.51701
438901 6.48827
439078 6.43841
439167 6.39478
439255 6.32073
439343 6.17165
439388 6.06311
439410 6.10980
439421 6.32225
439432 7.01377
439441 8.50802
439450 10.9391
439455 11.7988
439459 11.9607
439468 10.9767
439482 9.40526
439495 8.51049
439508 8.00536
439521 7.69694
439548 7.34625
439574 7.15725
439627 6.96138
439680 6.86153
439786 6.76017
439892 6.70837
440105 6.65446
440317 6.62714
440529 6.61693
440741 6.64121
440847 6.69568
440900 6.75304
440953 6.85466
441006 7.04872
441059 7.46405
441085 7.85903
441112 8.51706
441138 9.67545
441165 11.7773
441193 15.3786
441220 18.3046
441248 16.5642
441275 13.1451
441304 10.7251
441333 9.35108
441361 8.55080
441390 8.05680
441419 7.73105
441447 7.50613
441505 7.22383
441562 7.05817
441619 6.95180
441734 6.82499
441849 6.75224
441963 6.70530
442078 6.68776
442135 6.77458
442164 7.13923
442178 8.06244
442185 9.59407
442189 11.2378
442192 14.0544
442200 23.0176
442204 20.5335
442208 15.6642
442213 11.6951
442217 9.77642
442227 8.17711
442237 7.56212
442246 7.26870
442266 6.99940
442285 6.88132
442362 6.72965
442516 6.66041
442824 6.61330
443441 6.56541
444057 6.52786
444366 6.50637
444520 6.49541
444597 6.51541
444635 6.65189
444655 7.12195
444664 8.18563
444669 9.74343
444674 13.6835
444680 22.4226
444683 19.9305
444686 15.2753
444689 12.0991
444692 10.2581
444698 8.49323
444710 7.35872
444734 6.82947
444782 6.62406
444877 6.54562
445067 6.50889
445449 6.48730
445639 6.49504
445830 6.54746
445925 6.62603
446021 6.81111
446068 6.99815
446116 7.32450
446164 7.94159
446211 9.21223
446256 11.7271
446300 16.0723
446322 17.8714
446344 18.0502
446389 14.6651
446436 11.3236
446483 9.52470
446530 8.56107
446577 8.00283
446625 7.65163
446672 7.41656
446766 7.12907
446861 6.96321
446955 6.85744
447049 6.80149
447096 6.88036
447120 7.25838
447132 8.21058
447138 9.73592
447141 11.2882
447143 13.9405
447150 22.7074
447153 20.2975
447157 15.5504
447161 11.5254
447166 9.62344
447175 8.10694
447184 7.54595
447193 7.27769
447211 7.03261
447229 6.92281
447301 6.77280
447444 6.68792
447732 6.61749
448020 6.57725
448308 6.54853
448883 6.50638
449459 6.47287
450610 6.40922
451186 6.37181
451474 6.36555
451546 6.38332
451618 6.45162
451654 6.55152
451690 6.81034
451708 7.11026
451726 7.73369
451735 8.31619
451744 9.27562
451753 10.9472
451761 13.9103
451780 23.1491
451789 20.6499
451799 15.6350
451808 12.2451
451817 10.2874
451826 9.13572
451835 8.41983
451854 7.62557
451872 7.22078
451909 6.83826
451946 6.66638
452019 6.51569
452093 6.45332
452167 6.43165
452240 6.46506
452277 6.53892
452314 6.74175
452332 6.97500
452351 7.44309
452369 8.51737
452378 9.58536
452387 11.3498
452399 14.7683
452410 17.5891
452421 15.9356
452433 12.6165
452442 10.6287
452452 9.37193
452461 8.57471
452471 8.05015
452490 7.43392
452509 7.10126
452547 6.76857
452585 6.60749
452661 6.44504
452699 6.41088
452718 6.51042
452727 6.93692
452732 7.92919
452734 9.34809
452737 12.6504
452740 20.6185
452742 18.4605
452743 14.3799
452746 10.7638
452748 9.03488
452753 7.68571
452762 6.92645
452781 6.59027
452819 6.43980
452895 6.34465
453047 6.22505
453199 6.05502
453275 5.92995
453312 5.95084
453331 6.13678
453350 6.80282
453365 8.23119
453380 10.5926
453388 11.4639
453395 11.6571
453410 10.7275
453431 9.19609
453453 8.32047
453474 7.82354
453496 7.51705
453539 7.16824
453582 6.97944
453668 6.78088
453754 6.67701
453926 6.56612
454099 6.50291
454443 6.41408
454615 6.36508
454701 6.35401
454744 6.45591
454766 6.78061
454777 7.32531
454782 7.90376
454787 8.93559
454794 11.3906
454800 15.6121
454803 17.3859
454806 17.5895
454813 14.3766
454818 11.5406
454824 9.83901
454836 8.22177
454847 7.54848
454859 7.20904
454882 6.88127
454904 6.73003
454950 6.58896
454996 6.52109
455180 6.39854
455272 6.34601
455363 6.26159
455409 6.18102
455455 6.01986
455478 5.86061
455501 5.56568
455524 4.91352
455535 4.26076
455547 3.19895
455558 1.76157
455564 1.30877
455570 1.40685
455593 4.55856
455604 5.37218
455615 5.81216
455636 6.20156
455679 6.40731
455764 6.45554
455935 6.43514
456277 6.39379
456961 6.33348
457303 6.30099
457645 6.25544
457816 6.21937
457987 6.15909
458072 6.10786
458157 6.02372
458243 5.86718
458286 5.77780
458307 5.85515
458318 6.06525
458328 6.62481
458339 8.03633
458350 10.3788
458356 11.2517
458361 11.4549
458372 10.5709
458386 9.17118
458401 8.32511
458415 7.82298
458430 7.50870
458459 7.14448
458488 6.94558
458546 6.73648
458604 6.62877
458721 6.51829
458837 6.46095
459069 6.39914
459302 6.36342
459767 6.31558
459999 6.29665
460115 6.30987
460173 6.42863
460188 6.55165
460202 6.85264
460217 7.84770
460224 9.38103
460228 10.8983
460231 13.4235
460240 22.1519
460244 19.8044
460249 15.0700
460252 12.4443
460255 10.7249
460262 8.86761
460268 7.95835
460275 7.46969
460288 6.97955
460301 6.75186
460327 6.54953
460353 6.46236
460458 6.35238
460667 6.30268
461086 6.26431
461504 6.23006
461713 6.20130
461818 6.17533
461870 6.17706
461896 6.28431
461909 6.60575
461916 7.13054
461922 8.69039
461926 11.0744
461930 15.1748
461932 16.9038
461934 17.1384
461938 13.9614
461941 11.0777
461945 9.37735
461952 7.86256
461967 6.94278
461996 6.52196
462055 6.34814
462171 6.27009
462288 6.24177
462347 6.26118
462376 6.41062
462390 6.90689
462398 7.97777
462401 9.48953
462405 12.9430
462410 21.2149
462413 18.9097
462415 14.5504
462418 11.2990
462421 9.57299
462426 7.95929
462437 6.96564
462459 6.51796
462503 6.34489
462591 6.27581
462766 6.24059
463118 6.21234
463820 6.17655
465225 6.11351
466630 6.03968
467332 5.98731
467684 5.96473
467771 5.97603
467859 6.03190
467903 6.11164
467947 6.29405
467969 6.47371
467991 6.77791
468013 7.33307
468035 8.41531
468057 10.7450
468080 14.9110
468091 16.7306
468103 17.0233
468125 13.8628
468147 10.8652
468169 9.15326
468191 8.19613
468213 7.62536
468235 7.26083
468257 7.01403
468301 6.70986
468345 6.53379
468389 6.42137
468477 6.28830
468653 6.16381
468829 6.10329
469180 6.03884
469532 6.00104
469884 5.97784
470236 5.98227
470411 6.01870
470499 6.06157
470587 6.14109
470675 6.29865
470763 6.64786
470807 6.99128
470851 7.58125
470895 8.67244
470939 10.7787
471020 16.8763
471061 15.2915
471101 12.0114
471147 9.55628
471192 8.23208
471238 7.49132
471283 7.04495
471374 6.55885
471465 6.31012
471556 6.16295
471647 6.07942
471692 6.07258
471738 6.13355
471761 6.23201
471783 6.44760
471806 6.95677
471818 7.46869
471829 8.33086
471844 10.6499
471860 14.8043
471868 16.6146
471876 16.9352
471891 13.9325
471905 11.2369
471919 9.57564
471932 8.58077
471946 7.95803
471973 7.25992
472000 6.89646
472055 6.53907
472109 6.36779
472218 6.20458
472327 6.13102
472436 6.10410
472544 6.14013
472599 6.21928
472653 6.43216
472680 6.67690
472708 7.17805
472721 7.64041
472735 8.39432
472748 9.69197
472762 11.9819
472776 15.6517
472790 18.1395
472804 15.7504
472818 12.0998
472827 10.5142
472835 9.40314
472852 8.05587
472869 7.33715
472885 6.91967
472919 6.48456
472953 6.27477
473020 6.08295
473087 5.99688
473222 5.91502
473356 5.87120
473625 5.81419
473894 5.76932
474432 5.68433
474970 5.58755
475507 5.45755
475776 5.36730
476045 5.24491
476314 5.06301
476449 4.93188
476583 4.75431
476718 4.49971
476852 4.10867
476987 3.45485
477054 2.95801
477121 2.30012
477216 1.17864
477263 0.776196
477286 0.727028
477310 0.828400
477334 1.09954
477357 1.52602
477405 2.66141
477499 4.67828
477603 5.69510
477707 6.04016
477810 6.13962
477914 6.15013
478122 6.09354
478329 6.01848
478744 5.88525
479159 5.77761
479574 5.68545
479989 5.60143
480819 5.44093
482479 5.07741
483309 4.81053
483724 4.58206
483828 4.49225
483931 4.37579
484035 4.24984
484087 4.28729
484113 4.45814
484139 4.95996
484164 6.23223
484190 8.46428
484203 9.34291
484216 9.60478
484241 8.80607
484263 7.88074
484285 7.17449
484308 6.67560
484330 6.32156
484374 5.86380
484418 5.58694
484506 5.26935
484594 5.08837
484771 4.87430
484947 4.73618
485124 4.62869
485300 4.54131
485388 4.51064
485477 4.51177
485521 4.55309
485565 4.69655
485587 4.88481
485609 5.31185
485620 5.75066
485631 6.53402
485642 8.08125
485647 9.42016
485653 11.3917
485670 19.9223
485674 19.5708
485679 17.6577
485687 12.9451
485696 9.55514
485705 7.69366
485714 6.64307
485723 6.01488
485742 5.32788
485760 4.98689
485796 4.66457
485832 4.51524
485905 4.36925
485978 4.28848
486123 4.17967
486268 4.09178
486849 3.76721
487429 3.42308
488010 3.04237
488251 2.87383
488372 2.80385
488432 2.85042
488462 3.15001
488477 3.94632
488485 5.27626
488489 6.74991
488492 9.34953
488500 17.4815
488504 15.3543
488508 10.8869
488512 7.48821
488516 5.73888
488525 4.18912
488534 3.57724
488542 3.27860
488560 2.99729
488577 2.86812
488646 2.67728
488785 2.52500
489061 2.29647
489615 1.86168
490169 1.45555
490307 1.37380
490446 1.33030
490515 1.35423
490584 1.48398
490619 1.65951
490653 2.03954
490671 2.39666
490688 2.98033
490705 3.98014
490722 5.73732
490760 11.5300
490779 10.0590
490798 6.90705
490812 5.17387
490826 4.02382
490840 3.26437
490854 2.74912
490882 2.12449
490910 1.77702
490967 1.41611
491023 1.23369
491136 1.04368
491248 0.936706
491699 0.726200
492149 0.665864
492600 0.717900
492935 0.821767
493270 0.974500
493605 1.17981
493772 1.35872
493814 1.45747
493856 1.66077
493877 1.87497
493898 2.29996
493918 3.33089
493929 4.45761
493939 6.48656
493960 12.4953
493970 10.7854
493981 7.42998
493989 5.51539
493998 4.30376
494014 3.04068
494031 2.46159
494048 2.15914
494081 1.87863
494115 1.76500
494181 1.69439
494248 1.69357
494382 1.75079
494516 1.83309
495050 2.21004
495585 2.58396
495853 2.75973
495986 2.85689
496053 2.97390
496087 3.25969
496103 3.89032
496112 4.84180
496120 7.31555
496130 12.8411
496135 11.4376
496140 8.51380
496148 5.65702
496157 4.49670
496173 3.66726
496206 3.26593
496271 3.13717
496403 3.15205
496665 3.27410
497190 3.52042
498257 3.86073
498791 3.89025
499058 3.87383
499191 3.96238
499258 4.14521
499325 4.60894
499397 5.85063
499470 8.05896
499506 8.95575
499543 9.26243
499615 8.57581
499711 7.34403
499808 6.57531
499904 6.12147
500000 5.83585
500143 5.56657
500215 5.49425
500251 5.58461
500269 5.89084
500278 6.35338
500287 7.51992
500293 9.58773
500300 13.4690
500303 15.2848
500307 15.6982
500313 12.8497
500319 10.1742
500325 8.59135
500337 7.11971
500349 6.50487
500361 6.19392
500385 5.89008
500409 5.74495
500458 5.60223
500506 5.52968
500602 5.45242
500698 5.41161
500891 5.37712
501083 5.38322
501276 5.43722
501372 5.49729
501468 5.60326
501565 5.80612
501613 5.98119
501661 6.25161
501709 6.69669
501757 7.48480
501805 9.01826
501829 10.3325
501853 12.2424
501930 20.7929
501949 20.5031
501968 18.6585
502007 13.9504
502031 11.6769
502056 10.0818
502105 8.20099
502154 7.23174
502203 6.68369
502253 6.34645
502302 6.12599
502400 5.86717
502498 5.73077
502597 5.66416
502646 5.66153
502695 5.71395
502720 5.80119
502744 6.02028
502757 6.25820
502769 6.71239
502781 7.68726
502787 8.58969
502793 10.0021
502810 15.5591
502818 14.1784
502827 11.1631
502834 9.36200
502840 8.22498
502854 7.03733
502868 6.49049
502882 6.19929
502909 5.91448
502937 5.78293
502992 5.66351
503047 5.60985
503158 5.56036
503268 5.53755
503488 5.51807
503709 5.51248
504150 5.51664
504591 5.52861
506356 5.58489
507238 5.60696
508120 5.62329
509003 5.64160
509223 5.65672
509444 5.70239
509554 5.76640
509664 5.93462
509720 6.13677
509747 6.31126
509775 6.57945
509802 7.02019
509830 7.79480
509857 9.29314
509871 10.5623
509885 12.3839
509930 20.7919
509941 20.5267
509953 18.7264
509975 14.1434
509996 11.1441
510017 9.36246
510038 8.29476
510059 7.62398
510101 6.87544
510143 6.49594
510185 6.27957
510227 6.14798
510311 6.01528
510395 5.99002
510479 6.09408
510521 6.25500
510563 6.60913
510584 6.94600
510605 7.50273
510626 8.47236
510646 10.2053
510690 15.8117
510712 14.4491
510734 11.4077
510747 9.99468
510760 8.98028
510787 7.75151
510813 7.09498
510840 6.71728
510893 6.33240
510946 6.17133
510999 6.13265
511052 6.22471
511105 6.58987
511132 7.02094
511158 7.84144
511189 9.85183
511220 13.6816
511236 15.5453
511251 16.0348
511282 13.2739
511314 10.3527
511346 8.73922
511377 7.86073
511409 7.34534
511473 6.79541
511537 6.52082
511600 6.36203
511664 6.26617
511728 6.26441
511760 6.52912
511776 7.28359
511784 8.56539
511788 9.94837
511791 12.3335
511800 20.3794
511804 18.4767
511809 14.2834
511815 10.4251
511821 8.68981
511834 7.35472
511847 6.86805
511860 6.63362
511885 6.41330
511911 6.30809
512013 6.10580
512064 5.98981
512116 5.77078
512141 5.57167
512167 5.25698
512192 4.74471
512218 3.93035
512259 1.98262
512280 1.21798
512300 1.07498
512321 1.49814
512341 2.15619
512382 3.33093
512417 3.98413
512452 4.40932
512486 4.69440
512521 4.89289
512590 5.14323
512659 5.28890
512798 5.44419
512936 5.52106
513213 5.59068
513490 5.61750
513767 5.62648
514044 5.62427
514321 5.60785
514459 5.58118
514529 5.53751
514563 5.46428
514580 5.35201
514589 5.21735
514598 5.74006
514600 8.77960
514602 9.18616
514606 7.17468
514609 6.50851
514616 6.08146
514630 5.84770
514658 5.72904
514713 5.66697
514824 5.62854
514935 5.60885
514991 5.61983
515018 5.71671
515032 6.05757
515039 6.85248
515043 8.09689
515046 11.3698
515050 18.5271
515052 16.7046
515054 12.7980
515058 8.47981
515062 7.06792
515071 6.20201
515088 5.81865
515121 5.67216
515188 5.61158
515322 5.56811
515589 5.48391
515723 5.41791
515857 5.31629
515991 5.16059
516058 5.12040
516091 5.22474
516125 5.69309
516152 6.84997
516180 8.97789
516194 9.86554
516208 10.1922
516235 9.57623
516260 8.73462
516285 8.08284
516310 7.62232
516334 7.29526
516384 6.87698
516434 6.62806
516533 6.35240
516632 6.20580
516830 6.05447
517029 5.97749
517822 5.86082
518219 5.83807
518615 5.82564
519012 5.83032
519210 5.87197
519260 5.91008
519309 6.00350
519334 6.11395
519359 6.36614
519371 6.63770
519384 7.17859
519396 8.48327
519402 9.90240
519408 12.4609
519420 20.0911
519423 19.8183
519426 18.0320
519432 13.4435
519438 10.2033
519444 8.51093
519456 7.04158
519468 6.47988
519481 6.21656
519505 5.99042
519529 5.90179
519627 5.81406
519823 5.80138
520018 5.81359
520214 5.84428
520409 5.91598
520507 5.98716
520605 6.11019
520702 6.34252
520800 6.83901
520849 7.31560
520898 8.11863
520947 9.56824
520995 12.2900
521090 20.7042
521137 18.7586
521185 14.3105
521224 11.6329
521263 9.92927
521341 8.13486
521420 7.30074
521498 6.85145
521577 6.57365
521655 6.36377
521694 6.25024
521733 6.08826
521772 5.77082
521792 5.46303
521812 4.95593
521836 3.98656
521848 3.53599
521860 3.34882
521909 4.60426
521938 5.16975
521968 5.46169
521998 5.62002
522027 5.71197
522087 5.80461
522146 5.84436
522265 5.87026
522384 5.87323
522859 5.86405
523096 5.87902
523334 5.94584
523453 6.03932
523571 6.26314
523631 6.50137
523690 6.95076
523720 7.33196
523750 7.90353
523779 8.78640
523809 10.1596
523890 15.6762
523910 15.5281
523931 14.3718
523971 11.3837
523998 9.89227
524025 8.85321
524078 7.63846
524132 7.01660
524186 6.66467
524239 6.44781
524293 6.30490
524400 6.13361
524507 6.03788
524614 5.97823
524829 5.90937
525043 5.87118
525257 5.84683
525686 5.81681
526543 5.78418
527401 5.76301
529116 5.72456
529973 5.69471
530402 5.66849
530616 5.65512
530723 5.68516
530777 5.85085
530804 6.35261
530817 7.37615
530824 8.73894
530830 11.7685
530840 19.4346
530842 19.2154
530845 17.5819
530850 13.3613
530854 10.7341
530858 9.15596
530866 7.54475
530874 6.82063
530883 6.44182
530899 6.07711
530915 5.91345
530981 5.70373
531113 5.59955
531244 5.52802
531376 5.43460
531507 5.28449
531639 5.01077
531705 4.78269
531771 4.44649
531836 3.94095
531902 3.18912
532001 1.60718
532051 0.945766
532075 0.784119
532100 0.773637
532125 0.911684
532150 1.16969
532199 1.88321
532298 3.25520
532384 4.03944
532470 4.55741
532513 4.78576
532556 5.08157
532578 5.33333
532599 5.80615
532610 6.24786
532621 6.99559
532632 8.41825
532637 9.61141
532642 11.2935
532660 19.1819
532664 18.9814
532669 17.3143
532678 12.9675
532687 9.92332
532696 8.23685
532704 7.27311
532713 6.69042
532731 6.06585
532749 5.76787
532785 5.51224
532820 5.41810
532892 5.36493
532963 5.36208
533249 5.39875
533534 5.43437
533605 5.47476
533677 5.60237
533712 5.77174
533748 6.16443
533766 6.56740
533784 7.28395
533802 8.66987
533819 11.5194
533850 19.7173
533865 17.9056
533881 13.6786
533893 11.1918
533905 9.57830
533917 8.51750
533929 7.81032
533954 6.95525
533978 6.48135
534026 5.98316
534075 5.71517
534172 5.35139
534220 5.20263
534245 5.22685
534269 5.67939
534284 6.75287
534300 8.79540
534308 9.67953
534316 10.0290
534331 9.46925
534359 8.05397
534386 7.28326
534413 6.86536
534440 6.61260
534495 6.32701
534550 6.17094
534659 6.00441
534768 5.91576
534986 5.82014
535205 5.76532
535642 5.68541
535860 5.64731
535969 5.68400
536024 5.87848
536051 6.23939
536065 6.63874
536078 7.39050
536086 8.14045
536094 9.25070
536110 12.8974
536118 14.7791
536126 15.3572
536142 12.7805
536152 10.9324
536161 9.59569
536171 8.68436
536181 8.06385
536200 7.30201
536220 6.87718
536259 6.44308
536298 6.23276
536376 6.03508
536454 5.94310
536610 5.85610
536766 5.81378
537078 5.77050
537390 5.74711
538014 5.72092
538638 5.70836
539262 5.70985
539574 5.72022
539886 5.74351
540198 5.79207
540510 5.89638
540666 5.99267
540822 6.14991
540900 6.27061
540978 6.45143
541017 6.59427
541056 6.84293
541075 7.07832
541095 7.53489
541105 7.96528
541114 8.69611
541124 10.0943
541134 12.9309
541150 20.8371
541154 20.6589
541158 19.0729
541166 14.9524
541175 11.8306
541184 10.1830
541193 9.28266
541202 8.76262
541220 8.25356
541237 8.06035
541273 8.02692
541309 8.19419
541380 8.84079
541451 9.85266
541710 15.2278
541840 14.0145
541969 11.1374
542088 9.24287
542208 8.09498
542327 7.39376
542446 6.94487
542685 6.42754
542923 6.14918
543162 5.97674
543400 5.85728
543877 5.69052
544832 5.42558
545309 5.26666
545547 5.16804
545667 5.11274
545726 5.09954
545756 5.17367
545771 5.47389
545778 6.20596
545782 7.32940
545786 10.4774
545790 17.3618
545792 15.7651
545794 12.0006
545797 8.68334
545800 7.16593
545807 6.01875
545819 5.42202
545844 5.17335
545893 5.06204
545993 4.97509
546191 4.83677
546389 4.68515
546587 4.50891
547380 3.43427
548155 1.75368
548543 1.02796
548736 0.835905
548930 0.793972
549124 0.896996
549318 1.11607
549705 1.74144
550093 2.39281
550286 2.67435
550480 2.90906
550532 3.02555
550558 3.25915
550571 3.62504
550584 4.68557
550592 6.44708
550600 9.99160
550604 11.8723
550608 12.4866
550616 10.0065
550622 7.98768
550628 6.60843
550639 5.16857
550651 4.50821
550662 4.16494
550685 3.83666
550709 3.69519
550755 3.59187
550801 3.57133
550986 3.66224
551355 3.93068
551724 4.18064
551817 4.25902
551909 4.38878
551955 4.51918
552001 4.79968
552024 5.09406
552047 5.66367
552059 6.16915
552070 6.95505
552082 8.24358
552093 10.4128
552120 18.1645
552127 18.0109
552133 16.4267
552147 12.1989
552158 9.67938
552168 8.09806
552179 7.09108
552190 6.44101
552212 5.68695
552233 5.29296
552277 4.92227
552320 4.76417
552407 4.64524
552494 4.61246
552667 4.61560
552841 4.64379
553535 4.77120
553882 4.82152
554229 4.86076
554576 4.88645
554749 4.89071
554836 4.89734
554880 4.95665
554901 5.18790
554912 5.73189
554918 6.53312
554923 8.55139
554930 13.4885
554934 12.4001
554937 9.91039
554941 8.04045
554945 6.99090
554952 6.02561
554967 5.41165
554997 5.12489
555057 5.01160
555178 4.97033
555418 4.95548
555899 4.92872
556139 4.89387
556379 4.82282
556499 4.75970
556620 4.66173
556740 4.52113
556800 4.49753
556830 4.59068
556860 4.93638
556890 5.93947
556920 7.90998
556935 8.80489
556950 9.19145
556980 8.71867
557004 8.03392
557029 7.46836
557077 6.74122
557125 6.33429
557174 6.08564
557270 5.80565
557367 5.65563
557463 5.56363
557560 5.50210
557753 5.42605
558140 5.35329
558526 5.31972
560072 5.27180
560845 5.25547
561618 5.23304
562391 5.20581
562584 5.20986
562777 5.24788
562874 5.30617
562970 5.43851
563018 5.56421
563067 5.76859
563115 6.11575
563163 6.73581
563195 7.41033
563227 8.43384
563290 11.9154
563322 13.8090
563353 14.5196
563417 12.1423
563476 9.64407
563535 8.17894
563594 7.34504
563653 6.84229
563712 6.51711
563770 6.29515
563888 6.01751
564006 5.85484
564124 5.74962
564360 5.62252
564596 5.54661
564831 5.48933
565067 5.41839
565185 5.32985
565244 5.19704
565273 5.02208
565288 4.86722
565296 4.82486
565303 5.22927
565306 6.18378
565310 8.09368
565314 9.34501
565317 8.91327
565326 7.35144
565334 6.65253
565351 6.12566
565385 5.81303
565453 5.64601
565589 5.55783
565861 5.51145
566133 5.50815
566269 5.54075
566337 5.63287
566371 5.86754
566388 6.40514
566396 7.37679
566400 8.59479
566404 11.3185
566410 17.7366
566413 15.9295
566416 11.7830
566420 8.31151
566424 6.91645
566431 5.95764
566447 5.54736
566478 5.44090
566541 5.43243
566667 5.44265
566918 5.45382
567420 5.47538
567923 5.51546
568425 5.59332
568927 5.75192
569178 5.89332
569429 6.11540
569681 6.48530
569932 7.14906
570183 8.45652
570309 9.58541
570434 11.2472
570830 18.9679
570929 18.8745
571028 17.3353
571226 13.1623
571369 10.8939
571512 9.36917
571656 8.35597
571799 7.66894
571942 7.19111
572085 6.86196
572157 6.75398
572228 6.71944
572264 6.77185
572300 6.96100
572318 7.17968
572336 7.59147
572354 8.42403
572363 9.14461
572371 10.2063
572400 15.2295
572407 15.1559
572414 14.1576
572429 11.4522
572439 9.94618
572450 8.94530
572471 7.82186
572492 7.26151
572513 6.94659
572555 6.61309
572597 6.43937
572681 6.25096
572765 6.13981
572934 5.99585
573102 5.89686
573439 5.76022
573775 5.66767
574449 5.54828
575122 5.47274
575795 5.41785
576468 5.37198
577142 5.32419
577478 5.29197
577647 5.28528
577731 5.37885
577752 5.48837
577773 5.76072
577794 6.62633
577804 7.83736
577810 8.96895
577815 10.6921
577830 18.2233
577838 16.7206
577845 12.9478
577853 10.2865
577860 8.72682
577874 7.19107
577889 6.51239
577904 6.16066
577933 5.81787
577962 5.65935
578021 5.51472
578079 5.44901
578196 5.38725
578313 5.35713
578547 5.33847
578664 5.40585
578694 5.47935
578723 5.65658
578752 6.21972
578767 7.02994
578774 7.80710
578781 9.06210
578800 13.9831
578805 13.9209
578809 12.9502
578819 10.2967
578828 8.44988
578837 7.39458
578855 6.38863
578874 5.96551
578892 5.75235
578928 5.55070
578965 5.46038
579038 5.37965
579111 5.34268
579403 5.28315
579696 5.25073
579842 5.24577
579915 5.30368
579951 5.53665
579970 6.08157
579979 6.87084
579988 8.83252
580000 13.7482
580006 12.7445
580012 10.2405
580020 8.01440
580029 6.94298
580045 6.08148
580077 5.60116
580143 5.39478
580273 5.32142
580403 5.32058
580534 5.36051
580664 5.47150
580729 5.58210
580795 5.76653
580860 6.08972
580925 6.69677
580990 7.94097
581023 9.04148
581055 10.6849
581160 18.5287
581212 17.0599
581265 13.2147
581316 10.4928
581367 8.86599
581418 7.87854
581470 7.24980
581521 6.82560
581572 6.52665
581675 6.13980
581777 5.90720
581879 5.77191
581931 5.74904
581982 5.79301
582033 6.02321
582059 6.33033
582084 6.96866
582112 8.54983
582140 11.8888
582154 13.7791
582168 14.5365
582196 12.2873
582223 9.75857
582250 8.31794
582277 7.51302
582305 7.02944
582359 6.50002
582414 6.22609
582468 6.06030
582522 5.94955
582631 5.80931
582849 5.66289
583067 5.58335
583503 5.49347
583938 5.44039
584809 5.37373
585680 5.32633
586552 5.28234
587423 5.22861
587858 5.18923
588294 5.12594
588512 5.07292
588729 4.98478
588838 4.91350
588947 4.80688
589056 4.65247
589110 4.60820
589138 4.67507
589165 4.96260
589192 5.85425
589220 7.70331
589234 8.59399
589248 9.02331
589275 8.64671
589308 7.75052
589340 7.10991
589372 6.69526
589404 6.41997
589469 6.08621
589533 5.89572
589662 5.68911
589791 5.57919
590049 5.46255
590307 5.39937
590565 5.36018
590823 5.34629
590952 5.36583
591081 5.45583
591146 5.58554
591210 5.89859
591242 6.22907
591275 6.83532
591307 8.05727
591323 9.12877
591339 10.7231
591390 18.2924
591403 18.2554
591416 16.8558
591441 13.0219
591467 10.2332
591493 8.62685
591519 7.67991
591545 7.09349
591571 6.70583
591597 6.43861
591649 6.10178
591702 5.90370
591754 5.77631
591858 5.62512
591962 5.53952
592066 5.48469
592274 5.41765
592691 5.34789
593108 5.30602
593941 5.23913
594357 5.19742
594566 5.16428
594670 5.14004
594722 5.15384
594748 5.31027
594761 5.80972
594767 6.75133
594771 7.88708
594774 10.0386
594780 16.9311
594783 15.5540
594786 12.1500
594791 8.89859
594795 7.43408
594804 6.27625
594822 5.63553
594857 5.35447
594928 5.23418
595069 5.16559
595352 5.07524
595494 5.01186
595635 4.91122
595776 4.71939
595847 4.57024
595883 4.54214
595900 4.61401
595918 4.86378
595939 5.73670
595960 7.56859
595971 8.45869
595981 8.89185
596002 8.55497
596026 7.71394
596050 7.09425
596075 6.68679
596099 6.41195
596147 6.07537
596195 5.88137
596291 5.66813
596388 5.55285
596580 5.42674
596773 5.35269
597158 5.24977
597351 5.23810
597447 5.35797
597495 5.61642
597519 5.91578
597543 6.49125
597557 7.08085
597572 7.98790
597600 11.1811
597614 12.9980
597628 13.7464
597657 11.5986
597672 10.1213
597688 9.00665
597703 8.20594
597719 7.63921
597750 6.91928
597780 6.50310
597842 6.06380
597904 5.84414
598027 5.62989
598151 5.52479
598398 5.41989
598521 5.43163
598583 5.62755
598599 5.81121
598614 6.20846
598630 7.24037
598637 8.40935
598645 10.6120
598660 17.8396
598664 17.8027
598668 16.4367
598675 12.7370
598680 10.7675
598686 9.40227
598696 7.81921
598706 7.01365
598717 6.56120
598737 6.09239
598758 5.86615
598799 5.65690
598841 5.56171
598924 5.47306
599006 5.42963
599338 5.35395
599669 5.31047
600000 5.25285
600129 5.19861
600194 5.14867
600227 5.15747
600243 5.30010
600251 5.57035
600259 6.36653
600264 7.86671
600270 11.0989
600276 13.7352
600281 11.7252
600286 9.51106
600291 8.16253
600301 6.88164
600321 6.05219
600361 5.64231
600442 5.45654
600602 5.36861
600923 5.31931
601564 5.28170
602206 5.26048
602527 5.25429
602687 5.25301
602767 5.25247
602808 5.25739
602828 5.29774
602838 5.46288
602843 5.90947
602845 6.69833
602848 9.42466
602850 14.9009
602852 10.7879
602855 7.26744
602858 6.24714
602864 5.67580
602875 5.43047
602898 5.34159
602944 5.31919
603035 5.35830
603081 5.41958
603127 5.56346
603150 5.71909
603173 6.02761
603196 6.76420
603207 7.55349
603218 8.99917
603240 13.5716
603245 13.5429
603251 12.5625
603262 9.82195
603271 8.07217
603281 7.05631
603301 6.10666
603320 5.71675
603340 5.52827
603379 5.36114
603418 5.29297
603574 5.21860
603887 5.19062
604512 5.15318
604825 5.12359
605137 5.07122
605294 5.02413
605450 4.94164
605528 4.87205
605606 4.76385
605684 4.59340
605723 4.52120
605743 4.56387
605762 4.82658
605781 5.67383
605800 7.46935
605810 8.36041
605819 8.80368
605838 8.49754
605860 7.66825
605882 7.05816
605925 6.39262
605969 6.06705
606013 5.88082
606100 5.67998
606188 5.57566
606362 5.47134
606537 5.42236
606887 5.38674
607237 5.39610
607587 5.45347
607762 5.51308
607936 5.61207
608111 5.78587
608286 6.12388
608374 6.42401
608461 6.90060
608549 7.70810
608636 9.15154
608800 13.6603
608841 13.6445
608882 12.5971
608964 9.58571
609041 7.63893
609119 6.57671
609196 5.99356
609273 5.65714
609428 5.32250
609582 5.18772
609737 5.15760
609891 5.25287
609968 5.40385
610046 5.72963
610084 6.02722
610123 6.49565
610161 7.25526
610200 8.50093
610300 13.5556
610350 12.6894
610400 10.2175
610453 8.32510
610506 7.23228
610559 6.58824
610612 6.18659
610718 5.73306
610824 5.49346
610930 5.34811
611036 5.25082
611247 5.12863
611459 5.06133
611671 5.05933
611777 5.12222
611883 5.31795
611936 5.53670
611989 5.93573
612042 6.70052
612094 8.20990
612147 10.8815
612200 13.3727
612253 12.5575
612306 10.2283
612348 8.78617
612390 7.81408
612433 7.16814
612475 6.73729
612517 6.45896
612559 6.32361
612602 6.40429
612623 6.60786
612644 7.04324
612672 8.39834
612700 11.4873
612714 13.3578
612728 14.1922
612756 12.0262
612784 9.52421
612812 8.11731
612840 7.33638
612867 6.86520
612923 6.34112
612979 6.06029
613090 5.76413
613201 5.60753
613423 5.44731
613646 5.38458
613868 5.40020
614091 5.55045
614202 5.74347
614313 6.14366
614369 6.51899
614424 7.15843
614452 7.66318
614480 8.38623
614508 9.46511
614535 11.1288
614600 17.2265
614616 17.1697
614632 15.3811
614665 10.1884
614685 7.93153
614705 6.55436
614725 5.73542
614746 5.24693
614786 4.77722
614826 4.61982
614907 4.64585
614988 4.87619
615069 5.28383
615150 5.96160
615231 7.12375
615311 9.14709
615500 16.6983
615594 15.3925
615689 11.7304
615751 9.86152
615813 8.65810
615875 8.27015
615906 8.61939
615937 9.71118
616000 14.1275
616032 13.0585
616063 10.4776
616101 8.24068
616140 6.95672
616178 6.16437
616216 5.62393
616278 5.01866
616340 4.60009
616402 4.36605
616433 4.44907
616449 4.65499
616464 5.13612
616482 6.49529
616500 9.56787
616509 11.4280
616518 12.2609
616536 10.2156
616556 7.53912
616575 6.09608
616595 5.30777
616615 4.82775
616654 4.26144
616694 3.91928
616852 3.14824
617168 2.19437
617484 1.51467
617800 1.14736
618098 1.11944
618247 1.19599
618322 1.23966
618359 1.26607
618378 1.35925
618387 1.69411
618392 2.43454
618396 5.57561
618400 11.8740
618402 10.7336
618404 7.74361
618408 4.20880
618411 2.95950
618419 2.12269
618434 1.72657
618465 1.58563
618526 1.58625
618649 1.71269
618894 2.03213
619384 2.64841
619837 3.09531
620064 3.26756
620177 3.34734
620233 3.43942
620262 3.67980
620276 4.20206
620283 4.93400
620290 6.64079
620300 11.2766
620305 10.4499
620310 8.17149
620320 5.60252
620330 4.65418
620349 4.02546
620388 3.73652
620465 3.65252
620620 3.68517
620930 3.81093
621550 4.05323
621860 4.20346
622169 4.47566
622324 4.74837
622479 5.26530
622634 6.39131
622712 7.46352
622789 9.17415
623000 16.5144
623106 15.2649
623211 11.5976
623283 9.63614
623354 8.23933
623497 6.53795
623641 5.60089
623712 5.34093
623784 5.38597
623842 6.04592
623900 7.67957
623958 8.94075
624016 8.61538
624074 7.86108
624133 7.25245
624249 6.50123
624365 6.08571
624481 5.82637
624714 5.52049
624946 5.34642
625411 5.15814
625876 5.06321
626341 5.01720
626806 5.02696
627039 5.08167
627155 5.14020
627271 5.24055
627388 5.42085
627504 5.76909
627620 6.51657
627678 7.21000
627736 8.29413
627900 13.0850
627941 13.1175
627982 12.2596
628064 9.79219
628128 8.31777
628192 7.35074
628257 6.72024
628321 6.29848
628450 5.79342
628578 5.51523
628707 5.34423
628836 5.22974
629093 5.08542
629351 4.99526
629608 4.93361
629737 4.91634
629865 4.92641
629930 4.96074
629994 5.04977
630059 5.28958
630091 5.55527
630123 6.05357
630142 6.56842
630161 7.36821
630200 10.3634
630219 12.2792
630239 13.1827
630277 10.8081
630296 9.35616
630315 8.27667
630334 7.51242
630353 6.97116
630391 6.28978
630429 5.90059
630506 5.49276
630582 5.28941
630734 5.08823
630886 4.98384
631190 4.86521
631343 4.84217
631419 4.87850
631457 5.01063
631476 5.35536
631485 6.05766
631490 7.07905
631495 9.74369
631500 15.7322
631503 14.3576
631505 10.8123
631510 7.43370
631514 6.15605
631523 5.31932
631540 4.96386
631574 4.87376
631643 4.94324
631712 5.17887
631781 5.80020
631840 7.19473
631900 10.3138
631930 12.1966
631960 13.1532
632019 11.4982
632055 10.0313
632091 8.91804
632162 7.60215
632233 6.98278
632304 6.73336
632376 6.76000
632447 7.12523
632518 8.11755
632554 9.06490
632589 10.5272
632700 17.6569
632728 17.6995
632755 16.4414
632811 12.8270
632863 10.3190
632914 8.78558
632966 7.83908
633018 7.22887
633122 6.51805
633225 6.13279
633329 5.89614
633433 5.73762
633640 5.53944
633847 5.42060
634055 5.34525
634262 5.33477
634314 5.37531
634366 5.49775
634392 5.64361
634418 5.94199
634444 6.64137
634457 7.35553
634469 8.55855
634500 13.2219
634508 13.2562
634515 12.4251
634531 10.0168
634548 8.10078
634566 7.07698
634583 6.50649
634600 6.16783
634635 5.80222
634670 5.61925
634740 5.44366
634810 5.36066
634949 5.27887
635089 5.23546
635367 5.18415
635646 5.15062
636204 5.10603
636483 5.11951
636553 5.15515
636623 5.25978
636657 5.38773
636692 5.65850
636727 6.33277
636745 7.05520
636762 8.34362
636800 13.0705
636810 13.1129
636819 12.2956
636838 9.94171
636851 8.73050
636863 7.86651
636888 6.83357
636912 6.28872
636937 5.97310
636986 5.64209
637036 5.47996
637135 5.32921
637234 5.26185
637431 5.20402
637629 5.18313
638024 5.17814
638123 5.16963
638222 5.12601
638272 5.06182
638321 4.91832
638370 4.57475
638395 4.23996
638420 3.71085
638460 2.33077
638480 1.59678
638500 1.18095
638520 1.23398
638540 1.62748
638580 2.60447
638623 3.34626
638665 3.79794
638707 4.08025
638750 4.26523
638834 4.48540
638919 4.60711
639088 4.73238
639258 4.79354
639596 4.85128
639935 4.88164
640274 4.91421
640443 4.94202
640612 4.99113
640782 5.09066
640866 5.18199
640951 5.33045
641036 5.59036
641120 6.08979
641163 6.52241
641205 7.18082
641247 8.22023
641289 9.89134
641400 16.9007
641428 16.9795
641455 15.7315
641511 12.0736
641553 9.95014
641595 8.54412
641636 7.62213
641678 7.00231
641762 6.26105
641846 5.85755
641930 5.61408
642014 5.45591
642181 5.26795
642349 5.16310
642517 5.09748
642852 5.02066
643187 4.97701
643523 4.94869
644193 4.91559
644864 4.90716
645199 4.91713
645535 4.94596
645870 5.01270
646205 5.16778
646373 5.32107
646541 5.59197
646625 5.81923
646708 6.18753
646750 6.48849
646792 6.98316
646813 7.39251
646834 8.04218
646855 9.24604
646866 10.2940
646876 11.8979
646900 17.8554
646906 17.8856
646912 16.3300
646924 11.7787
646937 8.79895
646950 7.54626
646963 7.03927
646976 6.84977
647003 6.83734
647029 7.01330
647081 7.57474
647133 8.31761
647267 11.0477
647400 13.9986
647659 14.3335
647667 14.3954
647696 14.7161
647725 15.1855
647784 16.5118
647900 18.9895
648021 17.3214
648141 13.5446
648218 11.6132
648296 10.1914
648450 8.40184
648605 7.39530
648759 6.77840
648914 6.37005
649068 6.08316
649377 5.70850
649687 5.47486
649996 5.32368
650305 5.29207
650459 5.43893
650537 5.65080
650614 6.09245
650707 7.34889
650800 10.2895
650847 12.1672
650893 13.1513
650986 11.3844
651066 9.32474
651146 8.03482
651226 7.26613
651306 6.78404
651466 6.23616
651626 5.94192
651946 5.63637
652266 5.47650
652586 5.37465
652906 5.30389
653066 5.28170
653226 5.28756
653306 5.32624
653386 5.45006
653426 5.59952
653466 5.90258
653506 6.58848
653526 7.25319
653546 8.32085
653600 13.0120
653614 13.0821
653627 12.3120
653654 10.0470
653672 8.84127
653690 7.98686
653726 6.96144
653762 6.41880
653798 6.10180
653870 5.76229
653942 5.58861
654086 5.40725
654230 5.29446
654375 5.18095
654519 5.00687
654591 4.86203
654663 4.63921
654735 4.27921
654807 3.68676
654903 2.39487
654952 1.68626
655000 1.24430
655048 1.25967
655097 1.64722
655193 2.67992
655255 3.19760
655316 3.57565
655439 4.04397
655562 4.30415
655624 4.47087
655654 4.80247
655670 5.39860
655677 6.09480
655685 7.41938
655700 12.0273
655708 11.3603
655715 9.22808
655724 7.38104
655734 6.40547
655752 5.55441
655790 5.05362
655864 4.85098
656013 4.81313
656310 4.84818
656906 4.92379
657203 4.99798
657352 5.06893
657501 5.19035
657650 5.41396
657798 5.86520
657873 6.26639
657947 6.88823
658022 7.88147
658096 9.48760
658300 16.6361
658402 15.6416
658504 12.3131
658570 10.5936
658635 9.34305
658766 7.80584
658897 6.97309
659028 6.48087
659159 6.16626
659290 5.95289
659552 5.68841
659814 5.53532
660076 5.43715
660338 5.36666
660469 5.33452
660534 5.31517
660567 5.29888
660583 5.27886
660591 5.24947
660596 5.21013
660600 5.98237
660600 8.87389
660600 8.58411
660604 5.54260
660607 5.41783
660613 5.35875
660625 5.32857
660650 5.30925
660700 5.28957
660799 5.25501
660998 5.14720
661097 5.04262
661196 4.85684
661296 4.50126
661395 3.79501
661497 2.48759
661549 1.76454
661600 1.31134
661651 1.31244
661703 1.67650
661805 2.66292
661879 3.22487
661953 3.62704
662027 3.91317
662101 4.12152
662249 4.40228
662397 4.59492
662545 4.77205
662693 5.02247
662767 5.23880
662841 5.61026
662915 6.33847
662952 6.97775
662989 7.94119
663100 12.4845
663128 12.5721
663155 11.7869
663211 9.41689
663258 7.90666
663304 6.96031
663351 6.36937
663398 5.98889
663492 5.55307
663585 5.32606
663679 5.19370
663773 5.10977
663960 5.01249
664148 4.95899
664335 4.92489
664710 4.88102
665085 4.84994
665459 4.82925
665647 4.83386
665834 4.88495
665928 4.96767
666022 5.17035
666069 5.37933
666115 5.74662
666162 6.43317
666209 7.77303
666300 12.4151
666323 12.5029
666346 11.7565
666391 9.52507
666421 8.34325
666451 7.49318
666511 6.45143
666571 5.87493
666631 5.51049
666750 4.99233
666810 4.71460
666840 4.57971
666870 4.72542
666885 5.38351
666900 6.96787
666915 8.32988
666930 8.17871
666958 7.11401
666985 6.48637
667013 6.13499
667040 5.91791
667096 5.66336
667151 5.51740
667261 5.35184
667371 5.25713
667591 5.14758
667812 5.08230
668252 4.99569
668473 4.95306
668583 4.92748
668638 4.94536
668665 5.10967
668679 5.60188
668686 6.47348
668693 9.18445
668700 15.4935
668704 14.4867
668707 11.3956
668712 8.67905
668716 7.31996
668725 6.15606
668743 5.46917
668778 5.15812
668849 5.02569
668990 4.95872
669132 4.96853
669202 5.15726
669238 5.63070
669255 6.29957
669273 7.84383
669300 12.4384
669314 11.8097
669327 9.67077
669344 7.80783
669360 6.82303
669377 6.27801
669394 5.95084
669427 5.59397
669460 5.41239
669527 5.23495
669593 5.14956
669726 5.06498
669859 5.01919
670125 4.95032
670258 4.89397
670324 4.83276
670358 4.79330
670374 4.83609
670383 4.99115
670391 5.64753
670395 6.82641
670400 9.63404
670405 12.4295
670409 10.7475
670415 8.29348
670420 7.03773
670431 6.04240
670452 5.47223
670495 5.20102
670581 5.07452
670753 5.00853
671097 4.96337
671440 4.93866
671612 4.95130
671698 5.06664
671741 5.44223
671763 6.21558
671773 7.22768
671784 9.48870
671800 15.9861
671804 16.0963
671808 14.9608
671816 11.5950
671825 8.99763
671834 7.56567
671851 6.27660
671868 5.75585
671886 5.49727
671921 5.25696
671955 5.15015
672025 5.05587
672094 5.01420
672372 4.95638
672928 4.92096
674040 4.88501
674596 4.87608
675152 4.89364
675430 4.94052
675708 5.08350
675847 5.25896
675986 5.63184
676056 5.98381
676125 6.56796
676195 7.59916
676264 9.51034
676400 16.0705
676434 16.2162
676468 15.0340
676536 11.4030
676581 9.48586
676627 8.16425
676718 6.64711
676810 5.88527
676901 5.45523
677083 5.00510
677266 4.78053
677449 4.67272
677631 4.70757
677814 5.09795
677905 5.63498
677996 6.67513
678043 7.50056
678200 10.8637
678302 10.0801
678404 7.70816
678494 6.19370
678584 5.46546
678674 5.63154
678764 7.38140
678900 13.7075
678968 12.5613
679036 9.14455
679118 6.15785
679200 4.48407
679345 3.04843
679489 2.44530
679779 2.17327
680357 2.64969
680665 2.94257
680973 3.17910
681281 3.34842
681435 3.39962
681512 3.44116
681551 3.61929
681570 4.13573
681579 5.01581
681589 7.61529
681600 14.1772
681606 13.2932
681611 10.2600
681620 6.99009
681630 5.60619
681648 4.57201
681667 4.20353
681685 4.02945
681759 3.81023
681907 3.75651
682203 3.79515
682795 3.89469
683091 3.94588
683387 4.03948
683535 4.15000
683683 4.40844
683757 4.68069
683831 5.18302
683905 6.19671
683978 8.39949
684100 15.2641
684130 15.4440
684161 14.3912
684222 11.1425
684266 9.26410
684310 7.96280
684354 7.07619
684398 6.46156
684487 5.69721
684575 5.26119
684663 4.98748
684752 4.80258
684928 4.56851
685105 4.42130
685282 4.31333
685458 4.24998
685547 4.31797
685591 4.48781
685635 5.01214
685651 5.43711
685667 6.12286
685700 8.84934
685716 10.7236
685733 11.7934
685765 10.0484
685788 8.32589
685811 7.17454
685834 6.44258
685857 5.96768
685903 5.41160
685949 5.10947
686041 4.79974
686132 4.64480
686316 4.49292
686499 4.43229
686683 4.44681
686866 4.61453
686958 4.84090
687050 5.29499
687142 6.24993
687233 8.32942
687400 15.4640
687483 14.6781
687567 11.6893
687654 9.30381
687742 7.85095
687829 6.94755
687917 6.34362
688004 5.89929
688092 5.52565
688179 5.13344
688223 4.90817
688245 4.83092
688267 4.95295
688283 5.54806
688300 7.05494
688317 8.41947
688333 8.30442
688355 7.53118
688376 6.95450
688419 6.32628
688462 6.00716
688505 5.81216
688591 5.57602
688677 5.43080
689021 5.13749
689364 5.00145
689708 4.92662
690052 4.88793
690395 4.87608
690739 4.87617
690911 4.85399
690997 4.85555
691040 5.06156
691061 5.67586
691072 6.58549
691082 8.72810
691100 15.6672
691109 14.9485
691118 12.1257
691126 10.1229
691134 8.83454
691149 7.42822
691165 6.74813
691181 6.37077
691213 5.98808
691245 5.81015
691308 5.66742
691372 5.63564
691499 5.70127
691626 5.86730
691880 6.49994
692134 7.77318
692600 11.9718
692833 11.2364
693066 8.60539
693094 8.38330
693121 8.30443
693149 8.72010
693162 9.52716
693176 11.4632
693200 18.1888
693212 17.3478
693224 14.3812
693233 12.5418
693242 11.2517
693261 9.68405
693279 8.80850
693297 8.25142
693334 7.55776
693370 7.11540
693443 6.52198
693516 6.10465
693662 5.51209
693807 5.09937
693953 4.81348
694099 4.68884
694245 4.95582
694318 5.46389
694390 6.50027
694495 9.32162
694548 10.9384
694600 11.9742
694705 11.6049
694810 10.0265
694896 8.92906
694982 8.11922
695068 7.52766
695154 7.08704
695327 6.48251
695499 6.08943
695671 5.80874
695844 5.58845
696016 5.38606
696102 5.28397
696145 5.33282
696167 5.71078
696178 6.49312
696183 7.41066
696188 9.10534
696200 15.6970
696206 14.9509
696212 12.0696
696217 10.0355
696222 8.75519
696233 7.37574
696254 6.35414
696274 5.97334
696295 5.78041
696337 5.58419
696379 5.48011
696463 5.36030
696546 5.28399
696713 5.17776
696881 5.10114
697048 5.04749
697215 5.03108
697382 5.12319
697466 5.29684
697549 5.73502
697587 6.12940
697625 6.76633
697662 7.79849
697700 9.36873
697738 11.2642
697775 12.3547
697851 10.2581
697908 8.31193
697965 7.14537
698023 6.46344
698080 6.04036
698194 5.55868
698309 5.29290
698423 5.11907
698538 5.00064
698595 4.97460
698652 5.02709
698681 5.14456
698710 5.44322
698738 6.26596
698753 7.18683
698767 8.85563
698800 15.6438
698817 14.8819
698833 11.9098
698851 9.46380
698870 8.05185
698888 7.21249
698906 6.68679
698943 6.08385
698979 5.75999
699052 5.42442
699125 5.25139
699271 5.06561
699417 4.95853
699708 4.82453
700000 4.74577
700155 4.73280
700310 4.76440
700465 4.90103
700620 5.32104
700760 6.39837
700900 9.09134
700970 10.9304
701040 12.0440
701180 10.6986
701319 8.59014
701457 7.32550
701596 6.59651
701735 6.14132
701873 5.82955
702012 5.59301
702150 5.38562
702220 5.30396
702254 5.42109
702272 5.90829
702280 6.75449
702289 9.09655
702300 15.5817
702306 14.8264
702311 11.9712
702317 9.77621
702322 8.44619
702334 7.11325
702356 6.18287
702378 5.84563
702400 5.67426
702490 5.39500
702668 5.18105
703026 4.90878
703204 4.77182
703383 4.61464
703561 4.44336
703651 4.39552
703740 4.50935
703820 5.08072
703900 6.55956
703940 7.41353
703980 7.94326
704060 7.88672
704186 7.02777
704312 6.44026
704438 6.08084
704564 5.83863
704816 5.48569
704942 5.29846
705004 5.21618
705036 5.26775
705052 5.40878
705067 5.78850
705084 6.87592
705100 9.57784
705108 11.3979
705116 12.5053
705133 11.3935
705149 9.47991
705165 8.26535
705180 7.54478
705196 7.09541
705228 6.58004
705260 6.30088
705323 6.00853
705387 5.85578
705513 5.69031
705640 5.59078
705767 5.50356
705894 5.38139
705958 5.27678
706021 5.10459
706084 4.79884
706148 4.23598
706300 1.79722
706338 1.69479
706376 1.95635
706452 2.81360
706501 3.27762
706549 3.62821
706647 4.08143
706744 4.33960
706841 4.49657
707035 4.66624
707229 4.74785
707423 4.79028
707617 4.81238
708005 4.82529
708394 4.81439
708782 4.78190
708976 4.75200
709170 4.70251
709364 4.61130
709461 4.56040
709510 4.61177
709534 4.75428
709558 5.18238
709579 6.24542
709600 8.90486
709611 10.7481
709621 11.8652
709642 10.6254
709659 8.88366
709676 7.72740
709693 7.00920
709711 6.54698
709745 6.01058
709780 5.72160
709848 5.42636
709917 5.28026
710055 5.13794
710193 5.06923
710469 5.00409
710744 4.97603
711295 4.95664
711433 4.94150
711571 4.88762
711640 4.81970
711709 4.68557
711777 4.41254
711846 3.85299
712000 1.46228
712039 1.37611
712077 1.65292
712154 2.56962
712239 3.46768
712323 4.28784
712408 5.45735
712450 6.45872
712492 8.05577
712600 14.8224
712654 14.1472
712708 11.1080
712769 8.57198
712831 7.18105
712893 6.40074
712954 5.93364
713078 5.43203
713201 5.18408
713324 5.04262
713447 4.95328
713694 4.84678
714187 4.72495
714433 4.64453
714557 4.55763
714618 4.49028
714649 4.50385
714664 4.61968
714680 5.10331
714690 6.13522
714700 8.75327
714710 11.6949
714720 10.4113
714732 8.10324
714744 6.88929
714768 5.89585
714792 5.50930
714816 5.31335
714864 5.12124
714912 5.02893
715008 4.94239
715104 4.90520
715296 4.88791
715488 4.92036
715680 5.01841
715872 5.25120
715968 5.47252
716064 5.82978
716160 6.42462
716256 7.42974
716500 11.8366
716561 11.9952
716622 11.3588
716744 9.30980
716833 8.10540
716922 7.26478
717010 6.68615
717099 6.28017
717277 5.76371
717454 5.45147
717631 5.22980
717809 5.03295
717986 4.77098
718075 4.53100
718120 4.35789
718164 4.39549
718182 4.94203
718200 6.38833
718218 7.77452
718236 7.76810
718278 6.67955
718320 6.10873
718362 5.81455
718404 5.63898
718488 5.43674
718571 5.32057
718739 5.18303
718906 5.09471
719241 4.95029
719409 4.86175
719492 4.86000
719534 5.07713
719555 5.56509
719566 6.14578
719576 7.22531
719600 11.7489
719612 11.3469
719624 9.55118
719639 7.93487
719653 7.01610
719682 6.14371
719711 5.75969
719740 5.55277
719798 5.33696
719856 5.22427
719972 5.11157
720030 5.16870
720059 5.50277
720073 6.21589
720080 7.11143
720087 8.97898
720100 15.1919
720106 14.4752
720113 11.5022
720118 9.41364
720124 8.13620
720136 6.82362
720158 5.90104
720181 5.57902
720204 5.42409
720295 5.20434
720478 5.08988
720843 5.00869
721572 4.90912
721937 4.83737
722302 4.70579
722667 4.42241
723032 3.76309
723366 2.60146
723533 2.07896
723617 2.08025
723700 2.56500
723764 3.61831
723900 8.14737
723968 7.82358
724036 6.07431
724119 4.56588
724202 3.82003
724368 3.33322
724585 3.31734
724801 3.44434
725018 3.57853
725234 3.69254
725667 3.85509
726100 3.95121
726533 4.00126
726966 4.01619
727398 4.01748
727615 4.08098
727723 4.22021
727831 4.65048
727916 5.63923
728000 8.18815
728042 10.0353
728084 11.2179
728169 9.89316
728245 7.97769
728321 6.81845
728398 6.15050
728474 5.74396
728627 5.29937
728779 5.07738
729085 4.88727
729390 4.85001
729696 4.92411
730001 5.17634
730154 5.44656
730306 5.93612
730383 6.33715
730459 6.92282
730535 7.81081
730611 9.19546
730706 11.9274
730800 14.9543
730847 15.1968
730894 14.0092
730989 9.98833
731063 7.65963
731137 6.28575
731212 5.49376
731286 5.02989
731435 4.59413
731583 4.49164
731732 4.61260
731881 5.00578
732029 5.87702
732178 7.67569
732500 14.8522
732661 14.3328
732822 11.7011
732960 9.82340
733097 8.49586
733235 7.53266
733304 7.13926
733338 7.02020
733356 7.06826
733373 7.40336
733386 8.32344
733400 10.8031
733407 12.5931
733414 13.7375
733427 12.5122
733444 10.1141
733461 8.88336
733478 8.22851
733495 7.83609
733529 7.37800
733563 7.10636
733631 6.76774
733698 6.54195
733834 6.22733
733970 6.00345
734241 5.69247
734512 5.48265
735054 5.21411
735597 5.04567
736682 4.81717
737224 4.68077
737360 4.62202
737495 4.52832
737631 4.33491
737699 4.13475
737733 4.00350
737766 4.06064
737783 4.57183
737800 5.95843
737817 7.35730
737834 7.38163
737867 6.44012
737901 5.88923
737935 5.59313
737968 5.41519
738036 5.21323
738103 5.10215
738238 4.98108
738373 4.91384
738642 4.83550
738911 4.78543
739450 4.70581
739720 4.64906
739854 4.58409
739922 4.50762
739955 4.44886
739972 4.46351
739989 4.99950
739994 5.93407
740000 8.39586
740006 11.3338
740011 10.0415
740019 7.45864
740027 6.34205
740043 5.53143
740075 5.08887
740140 4.87523
740268 4.76914
740525 4.70585
741038 4.65081
742065 4.57704
742578 4.54543
743091 4.52831
743348 4.54400
743605 4.62503
743733 4.73612
743861 4.97374
743926 5.19042
743990 5.52911
744054 6.07393
744118 6.95669
744300 11.2831
744346 11.4781
744391 10.9104
744482 9.01024
744554 7.79710
744626 6.96992
744697 6.41294
744769 6.02958
744913 5.55420
745056 5.28080
745200 5.10626
745343 4.98528
745630 4.82517
745987 4.69232
746344 4.57472
746523 4.50324
746702 4.40033
746791 4.32111
746880 4.19989
746970 3.99020
747014 3.84212
747059 3.87245
747079 4.36079
747100 5.72427
747121 7.12214
747141 7.16882
747188 6.15955
747234 5.61444
747280 5.33244
747326 5.16466
747419 4.97411
747511 4.86666
747696 4.74160
747881 4.66143
748251 4.53544
748436 4.49659
748528 4.55347
748574 4.68166
748620 5.04603
748640 5.38285
748660 5.94140
748680 6.87351
748700 8.33952
748720 10.1895
748740 11.4022
748780 9.90002
748808 8.29512
748836 7.23192
748863 6.56647
748891 6.13568
748947 5.63472
749003 5.36303
749115 5.08408
749226 4.94332
749449 4.79898
749672 4.72088
750119 4.62663
750565 4.55912
751458 4.42652
751904 4.34946
752127 4.35567
752239 4.45297
752295 4.58583
752350 4.85653
752388 5.19183
752425 5.75336
752500 8.16191
752538 9.99559
752575 11.2231
752650 9.91917
752687 8.77163
752724 7.86668
752799 6.72002
752874 6.09387
752948 5.72196
753097 5.31878
753247 5.11306
753545 4.91977
753843 4.85485
754142 4.88487
754440 5.07695
754589 5.30841
754739 5.74280
754888 6.60262
755037 8.39625
755300 14.5744
755366 14.8741
755432 13.9855
755563 10.9386
755671 8.95101
755778 7.63851
755886 6.78166
755993 6.20553
756208 5.54385
756315 5.42857
756423 5.61337
756511 6.40873
756600 8.75425
756644 10.5164
756689 11.7110
756777 10.6747
756830 9.41335
756884 8.42063
756990 7.18756
757096 6.51614
757202 6.10634
757415 5.62873
757628 5.34776
757840 5.15726
758053 5.05078
758159 5.07057
758265 5.24078
758319 5.46104
758372 5.87722
758425 6.67423
758478 8.20716
758539 11.4280
758600 14.8189
758661 14.3661
758722 11.7624
758775 9.92407
758827 8.66832
758879 7.81532
758931 7.21546
759036 6.43626
759141 5.94048
759350 5.26675
759559 4.69285
760400 1.80773
760596 1.49116
760693 1.39445
760742 1.32454
760767 1.38524
760779 1.77625
760785 2.48210
760791 4.40349
760800 10.7151
760805 10.3280
760809 8.01467
760816 5.49731
760823 4.23603
760836 3.13958
760863 2.47231
760917 2.18253
761025 2.16830
761241 2.41766
761509 2.74856
761777 3.02209
761911 3.15163
762045 3.32077
762112 3.46241
762179 3.71729
762246 4.27912
762280 4.83564
762313 5.76660
762400 10.0203
762443 9.71968
762487 7.88422
762525 6.60214
762563 5.77399
762601 5.24633
762639 4.89940
762715 4.49433
762791 4.27944
762943 4.07402
763095 3.98405
763399 3.90671
763703 3.86279
764007 3.81356
764310 3.73829
764614 3.61051
764766 3.53915
764842 3.56917
764880 3.67035
764918 3.95054
764959 4.81519
765000 7.18935
765021 8.98833
765041 10.2232
765082 9.23288
765107 7.94983
765133 6.97098
765159 6.28909
765184 5.81415
765236 5.21826
765287 4.87257
765390 4.50099
765492 4.32113
765595 4.25758
765698 4.35674
765749 4.53733
765800 4.91419
765852 5.70367
765903 7.38871
766000 13.7137
766049 13.2378
766097 10.5141
766128 9.03160
766159 7.92328
766221 6.51279
766284 5.70521
766346 5.19904
766408 4.85582
766470 4.61675
766594 4.40894
766697 4.72233
766800 5.93702
766903 7.27228
767006 7.30368
767111 6.78705
767216 6.32351
767427 5.73832
767637 5.41531
767848 5.21531
768269 4.98119
768690 4.84698
769111 4.75802
769532 4.69188
769953 4.63115
770163 4.59888
770268 4.65485
770321 4.96725
770347 5.63291
770360 6.44938
770373 8.05318
770400 14.3043
770413 13.8850
770427 11.2513
770437 9.62949
770446 8.50024
770466 7.16923
770486 6.48287
770505 6.09171
770545 5.68645
770584 5.49500
770663 5.29207
770702 5.10681
770741 4.51077
770771 3.38443
770800 2.07444
770815 1.85339
770829 1.95603
770859 2.52321
770894 3.11808
770929 3.49422
771000 3.88714
771070 4.07161
771141 4.17162
771282 4.26847
771423 4.30730
771705 4.31508
771846 4.29388
771916 4.30485
771951 4.44448
771969 4.80994
771978 5.33484
771986 6.57322
772000 10.5670
772007 10.2646
772014 8.48975
772027 6.33884
772040 5.50404
772065 4.91554
772117 4.60733
772220 4.46465
772427 4.38975
772840 4.31656
773253 4.22841
773459 4.18538
773511 4.20429
773563 4.30265
773589 4.44203
773614 4.75111
773640 5.50946
773653 6.28660
773666 7.59828
773700 13.8069
773709 14.1417
773717 13.3768
773734 10.7097
773754 8.33827
773774 7.01604
773794 6.25488
773814 5.78888
773854 5.26662
773894 4.99246
773975 4.71497
774055 4.57455
774215 4.42329
774375 4.32817
774695 4.16401
774856 4.09290
774936 4.12338
774976 4.22213
775016 4.49590
775037 4.79992
775058 5.32102
775100 7.63006
775121 9.42983
775142 10.6883
775184 9.61213
775208 8.41303
775232 7.48370
775256 6.82154
775279 6.35216
775327 5.75312
775374 5.40024
775469 5.01226
775564 4.80285
775754 4.56802
775944 4.41523
776134 4.27615
776324 4.10994
776514 3.86030
776609 3.69147
776657 3.62606
776704 3.66632
776752 4.09081
776800 5.37545
776824 6.19649
776848 6.76651
776896 6.88469
776956 6.34225
777016 5.88080
777077 5.56599
777137 5.34808
777258 5.06688
777379 4.88556
777620 4.61096
777741 4.45658
777801 4.39333
777831 4.43435
777861 4.76637
777881 5.59451
777900 7.90617
777910 9.68524
777919 10.9369
777939 10.0189
777952 8.65133
777966 7.65466
777992 6.53012
778019 5.97405
778046 5.65762
778100 5.31864
778153 5.14091
778261 4.95388
778368 4.85230
778582 4.73499
778797 4.66107
779226 4.55868
779440 4.55944
779494 4.60302
779547 4.72864
779601 5.13565
779628 5.67531
779654 6.84779
779700 10.8936
779711 11.1237
779723 10.6034
779746 8.75379
779768 7.32990
779791 6.47103
779813 5.95002
779836 5.61771
779881 5.23602
779926 5.03155
780016 4.82411
780106 4.72259
780196 4.67028
780286 4.67382
780331 4.72849
780376 4.89743
780398 5.09296
780421 5.47211
780443 6.27730
780455 7.01793
780466 8.15292
780500 14.1226
780509 14.4611
780517 13.6616
780534 10.8441
780550 8.82811
780565 7.56687
780581 6.78406
780596 6.27794
780627 5.69203
780658 5.37837
780720 5.06457
780782 4.91280
780906 4.76557
781030 4.69187
781278 4.61194
781526 4.56216
782021 4.46957
782269 4.39404
782393 4.36695
782455 4.42055
782517 4.74033
782558 5.54297
782600 7.81890
782621 9.58257
782642 10.8347
782683 9.87587
782719 8.17995
782754 6.99482
782824 5.50002
782912 3.86208
783000 2.29807
783044 1.97719
783088 2.01453
783176 2.52851
783251 2.95602
783326 3.26525
783401 3.47951
783476 3.62909
783626 3.81376
783776 3.91432
784077 4.00157
784227 4.03477
784302 4.14977
784339 4.46247
784358 4.96901
784377 6.36935
784400 10.3266
784406 10.5550
784412 10.0358
784423 8.21089
784437 6.62937
784450 5.76157
784477 4.98261
784504 4.66454
784530 4.50430
784584 4.35143
784637 4.28168
784851 4.19389
785065 4.17766
785280 4.19013
785494 4.24711
785708 4.42063
785815 4.62043
785922 5.00479
786029 5.81265
786082 6.54314
786136 7.66297
786300 13.6123
786341 13.9677
786382 13.1586
786464 10.2426
786542 8.07952
786620 6.75942
786698 5.95282
786776 5.43258
786933 4.81245
787089 4.44464
787245 4.17442
787401 3.93785
787557 3.71764
787713 3.65017
787807 4.03318
787900 5.27958
787993 6.65724
788087 6.80576
788276 6.03513
788371 5.77495
788465 5.62439
788560 5.58745
788654 5.71036
788749 6.13732
788843 7.24879
789000 11.2507
789039 11.4760
789078 10.9644
789157 9.14267
789247 7.53448
789338 6.61621
789429 6.07874
789519 5.73969
789701 5.34565
789882 5.12590
790064 4.98565
790245 4.88863
790608 4.76915
790971 4.72488
791152 4.73916
791333 4.79685
791515 4.93654
791696 5.25359
791787 5.54783
791878 6.01287
791968 6.76815
792059 8.01210
792300 13.9486
792360 14.3058
792421 13.5087
792541 10.6085
792631 8.81749
792721 7.58652
792811 6.80363
792901 6.58082
792950 7.13119
793000 9.18173
793025 10.8710
793050 12.0861
793099 11.0603
793140 9.40184
793180 8.27077
793221 7.54578
793261 7.05953
793342 6.45644
793423 6.09521
793584 5.67322
793746 5.42773
794069 5.14618
794392 4.98811
794716 4.88968
795039 4.82918
795362 4.80586
795524 4.83815
795605 4.96449
795645 5.29786
795665 5.92847
795675 6.73257
795685 8.52849
795700 13.9565
795704 14.2769
795707 13.4326
795715 10.4051
795722 8.08884
795730 6.84043
795745 5.76128
795776 5.15325
795838 4.91379
795961 4.84662
796207 4.85660
796453 4.84624
796576 4.75552
796699 4.48748
796850 3.70426
797000 2.86028
797071 2.93092
797143 3.40395
797285 5.16644
797301 5.41224
797351 6.23322
797401 7.13516
797501 9.14295
797700 12.7583
797908 12.7538
798115 10.4891
798351 8.42428
798586 7.19761
798822 6.46462
799058 5.99954
799529 5.46240
800000 5.16775
800569 4.94993
801138 4.80308
802275 4.59410
802844 4.50050
803412 4.39502
803697 4.32880
803981 4.24074
804266 4.09753
804408 3.98028
804479 3.93477
804514 3.97751
804550 4.25737
804575 4.99992
804600 7.17830
804613 8.94556
804625 10.2430
804650 9.35436
804673 7.68678
804695 6.63391
804717 6.00461
804739 5.61057
804784 5.15715
804828 4.90971
804917 4.64474
805006 4.49883
805184 4.32242
805362 4.19799
805540 4.09505
805717 4.03874
805806 4.07467
805895 4.24924
805940 4.45488
805984 4.81830
806029 5.46195
806073 6.58440
806200 12.6531
806225 13.0970
806300 12.7185
806327 12.7989
806375 11.7560
806410 10.5875
806444 9.59728
806514 8.22675
806583 7.38286
806652 6.82793
806791 6.15678
806930 5.77145
807033 5.57726
807233 5.32071
807433 5.15206
807833 4.93839
808233 4.80161
808633 4.69937
809432 4.53639
809832 4.48963
809932 4.50990
810032 4.59541
810082 4.70438
810132 4.92698
810182 5.42642
810207 5.90560
810232 6.67486
810300 10.4734
810317 10.7299
810334 10.2186
810368 8.30830
810391 7.22091
810415 6.45710
810461 5.55707
810508 5.08543
810554 4.80417
810647 4.49262
810693 4.45102
810740 4.67794
810770 5.38098
810800 7.51726
810815 9.26639
810830 10.5671
810860 9.73383
810890 7.94645
810919 6.86642
810949 6.24644
810979 5.86465
811038 5.42910
811097 5.19198
811215 4.93864
811333 4.80184
811570 4.64904
811807 4.56045
812043 4.50767
812280 4.50947
812398 4.56431
812516 4.72179
812576 4.88559
812635 5.16363
812694 5.64897
812753 6.50872
812900 10.5378
812937 10.8073
812974 10.3595
813047 8.66415
813104 7.56168
813161 6.79294
813217 6.26590
813274 5.89800
813388 5.43370
813501 5.16093
813615 4.98363
813728 4.85906
813955 4.69386
814182 4.58857
814409 4.52583
814523 4.52015
814636 4.56526
814693 4.64270
814750 4.83292
814778 5.03457
814806 5.40890
814835 6.19663
814849 6.92867
814863 8.08467
814900 13.5484
814909 13.9348
814919 13.1176
814937 10.0590
814953 8.01607
814969 6.77608
814985 6.03304
815001 5.56945
815033 5.05799
815065 4.80128
815129 4.56527
815193 4.46572
815321 4.40003
815449 4.42380
815577 4.54495
815705 4.84646
815833 5.54581
815960 7.16323
816080 10.2045
816200 13.5466
816320 13.3728
816440 11.0973
816589 8.86231
816738 7.56725
816887 6.80177
817036 6.31675
817334 5.75427
817632 5.44715
817930 5.26275
818228 5.16582
818377 5.16613
818526 5.25642
818601 5.39344
818676 5.70287
818713 6.00317
818750 6.50608
818787 7.39909
818825 9.01798
818862 11.6574
818900 13.5735
818938 12.0278
818976 9.47267
819008 7.97697
819040 7.04701
819072 6.46050
819104 6.07551
819168 5.62258
819232 5.37724
819360 5.12780
819488 5.00334
819744 4.87386
820000 4.79968
820393 4.72335
820787 4.66060
821180 4.59180
821377 4.55252
821475 4.58817
821524 4.80042
821549 5.22426
821561 5.71420
821573 6.62888
821600 10.5086
821607 10.7794
821613 10.3433
821627 8.66444
821639 7.41732
821651 6.62093
821675 5.78789
821700 5.39880
821724 5.18673
821773 4.96871
821822 4.86080
821919 4.75356
822017 4.69821
822407 4.59132
822797 4.49748
822992 4.39705
823089 4.28251
823138 4.22916
823162 4.41642
823174 4.95010
823186 6.96587
823200 12.9672
823207 12.8166
823214 10.6393
823221 8.82921
823227 7.67644
823241 6.46264
823269 5.56002
823296 5.21997
823324 5.04718
823379 4.87468
823434 4.78843
823545 4.70034
823655 4.65343
824097 4.56373
824538 4.50149
824759 4.45977
824869 4.45321
824924 4.56179
824952 4.87911
824966 5.35551
824979 6.51272
825000 10.3477
825010 10.1875
825021 8.52303
825035 6.86912
825048 6.02909
825076 5.31356
825131 4.88360
825242 4.67387
825463 4.57246
825905 4.51057
826788 4.45124
828556 4.35979
829440 4.30926
830324 4.24638
831208 4.16261
831429 4.14502
831650 4.15431
831760 4.19651
831871 4.32175
831926 4.46039
831981 4.71230
832036 5.19492
832091 6.16031
832200 10.0084
832227 10.2948
832254 9.85623
832309 8.12816
832362 6.76913
832416 5.94106
832469 5.44755
832523 5.15941
832576 5.02909
832630 5.09921
832656 5.26948
832683 5.61326
832710 6.27465
832736 7.52540
832800 13.4004
832816 13.8224
832832 13.2033
832864 10.7777
832887 9.25201
832910 8.15579
832934 7.38621
832957 6.83895
833003 6.13211
833050 5.70889
833143 5.23627
833236 4.97991
833329 4.81603
833422 4.69920
833608 4.53240
833980 4.25469
834166 4.01866
834352 3.52903
834376 3.85386
834400 4.99140
834424 6.37232
834448 6.59530
834493 5.92667
834539 5.46007
834585 5.19240
834630 5.02501
834721 4.82761
834812 4.71362
834995 4.58186
835177 4.50268
835541 4.40015
835906 4.32489
836635 4.18564
836999 4.10565
837181 4.09460
837272 4.22716
837318 4.57391
837341 5.05440
837363 6.14078
837400 9.91602
837409 10.2037
837418 9.77226
837437 8.05632
837460 6.42216
837483 5.57196
837507 5.11338
837530 4.84263
837577 4.55141
837624 4.40417
837717 4.26723
837811 4.22564
837905 4.26446
837998 4.45225
838045 4.66665
838092 5.04640
838139 5.73234
838185 6.98552
838300 12.9550
838357 12.8135
838415 10.4563
838455 8.99931
838496 7.93725
838537 7.18231
838578 6.63844
838659 5.93200
838741 5.50627
838823 5.22500
838904 5.02549
839067 4.75615
839230 4.57115
839394 4.42110
839557 4.29256
839638 4.27475
839679 4.32853
839720 4.52695
839760 5.16129
839780 5.89638
839800 7.14653
839820 8.90082
839840 10.2735
839880 9.24354
839910 7.75295
839940 6.78414
839970 6.18728
840000 5.80339
840059 5.35617
840119 5.11296
840238 4.86762
840357 4.76682
840477 4.76086
840596 4.88272
840715 5.28452
840775 5.71802
840834 6.45460
841000 10.3249
841041 10.6169
841083 10.2048
841166 8.55676
841223 7.57204
841280 6.85191
841337 6.33815
841394 5.96714
841508 5.48123
841622 5.18388
841736 4.98357
841850 4.83740
842079 4.62854
842535 4.32119
842763 4.16783
842877 4.12156
842934 4.15696
842991 4.34258
843019 4.56475
843046 4.97322
843073 5.71349
843100 6.96560
843127 8.69188
843154 10.0596
843209 9.27167
843237 8.25757
843265 7.44163
843293 6.83658
843321 6.39486
843377 5.81320
843433 5.45926
843545 5.05660
843657 4.83824
843770 4.71948
843882 4.72132
843938 4.82122
843994 5.08416
844050 5.72913
844106 7.32168
844200 13.2961
844247 13.1842
844294 10.9041
844344 8.94458
844393 7.72717
844442 6.96977
844491 6.47406
844541 6.13170
844590 5.88390
844689 5.55230
844787 5.34146
844886 5.19561
845083 5.00484
845280 4.88275
845478 4.79543
845872 4.67232
846661 4.49941
847056 4.41319
847253 4.40227
847351 4.55564
847401 4.92576
847425 5.39047
847450 6.31936
847500 10.1843
847513 10.4877
847525 10.0975
847550 8.51140
847576 7.19228
847602 6.38325
847627 5.88856
847653 5.57137
847704 5.20134
847755 4.99955
847858 4.79004
847961 4.68233
848166 4.56722
848371 4.49926
848782 4.39457
848987 4.31749
849090 4.22051
849141 4.07707
849167 3.88178
849192 3.48224
849200 4.87513
849208 6.45487
849221 5.41756
849235 5.00126
849263 4.71072
849317 4.53727
849427 4.43210
849646 4.34631
849866 4.26534
849975 4.18837
850030 4.11504
850057 4.07828
850085 4.36835
850092 4.98598
850100 6.92167
850108 10.0120
850115 8.90251
850125 6.68129
850135 5.73294
850155 5.04038
850195 4.65564
850274 4.46231
850432 4.35469
850750 4.26888
851384 4.14508
852019 3.99887
852336 3.93180
852495 3.94829
852574 4.00527
852653 4.14180
852715 4.35708
852777 4.75513
852838 5.48049
852900 6.71753
852962 8.43300
853023 9.81787
853147 9.11963
853214 8.08249
853281 7.25477
853349 6.65181
853416 6.21661
853551 5.65246
853686 5.31367
853955 4.93430
854224 4.72988
854494 4.61266
854763 4.58211
854898 4.63102
855033 4.78533
855167 5.19750
855235 5.61781
855302 6.30884
855500 10.1382
855550 10.4454
855599 10.0570
855698 8.45250
855763 7.53308
855827 6.84429
855956 5.97155
856085 5.47813
856213 5.17343
856342 4.97865
856471 4.88826
856535 4.91838
856600 5.08405
856632 5.28170
856664 5.64152
856696 6.31214
856728 7.58203
856800 13.2705
856818 13.7351
856836 13.1545
856872 10.7382
856901 9.05025
856931 7.90639
856960 7.14637
856990 6.62718
857049 5.98779
857108 5.62031
857227 5.22129
857345 5.00671
857464 4.86819
857582 4.76773
857819 4.62145
858292 4.39114
858529 4.23302
858647 4.09336
858706 4.00049
858736 3.98733
858765 4.19024
858783 4.79712
858791 5.51955
858800 6.73859
858817 9.81576
858835 9.17094
858854 7.32160
858874 6.30276
858893 5.75514
858913 5.42957
858952 5.07024
858991 4.87881
859069 4.67560
859147 4.56466
859302 4.43317
859458 4.34361
859770 4.18483
859926 4.08374
860004 4.04028
860043 4.13863
860063 4.45305
860072 4.88846
860082 5.83616
860100 9.61111
860109 9.55485
860118 8.07380
860132 6.40612
860145 5.58986
860173 4.90586
860227 4.48276
860336 4.24777
860445 4.15444
860554 4.10695
860663 4.10864
860772 4.22413
860827 4.38675
860881 4.70987
860936 5.36469
860990 6.71738
861100 12.4474
861128 12.9123
861155 12.3469
861210 9.98788
861247 8.59253
861284 7.55206
861357 6.23710
861430 5.52341
861504 5.28296
861552 5.68738
861600 7.48237
861624 9.11254
861648 10.4323
861696 9.82115
861734 8.41758
861772 7.41261
861810 6.75050
861847 6.30180
861923 5.73935
861998 5.39943
862149 4.99318
862300 4.74100
862451 4.55853
862602 4.43580
862678 4.42077
862753 4.49416
862829 4.82096
862866 5.22536
862904 5.97624
863000 9.80941
863048 9.74220
863096 8.21768
863148 6.86180
863199 6.00697
863251 5.45918
863303 5.08290
863406 4.59764
863509 4.35252
863604 4.49956
863700 5.47316
863796 6.77790
863891 6.99066
864059 6.33758
864227 5.83752
864395 5.52602
864563 5.31673
864899 5.04596
865235 4.86618
865571 4.72650
865907 4.61455
866075 4.58344
866243 4.62076
866327 4.71744
866411 4.96003
866495 5.57980
866537 6.21304
866579 7.26386
866700 13.0361
866730 13.5229
866761 12.9896
866821 10.7029
866876 8.94446
866931 7.78587
866986 7.03246
867041 6.52480
867151 5.90470
867261 5.54853
867371 5.31721
867481 5.15257
867702 4.92216
868142 4.58782
868362 4.41620
868472 4.35334
868527 4.37093
868582 4.50895
868611 4.70493
868641 5.08032
868700 6.98847
868730 8.66973
868759 10.0526
868818 9.56881
868879 7.91111
868909 7.33099
868939 6.89761
869000 6.31378
869060 5.95186
869182 5.53351
869303 5.29546
869545 4.99563
869666 4.84478
869726 4.76706
869757 4.87186
869772 5.28595
869779 5.91474
869787 7.35849
869800 12.9261
869807 12.8769
869813 10.7491
869823 8.33087
869833 7.13092
869853 6.12448
869892 5.50700
869971 5.17947
870130 4.99017
870446 4.84525
870763 4.75972
871079 4.69212
871712 4.56762
872029 4.50398
872187 4.54010
872266 4.77000
872306 5.18047
872326 5.60503
872345 6.31882
872400 10.1177
872414 10.4470
872427 10.1019
872455 8.59392
872478 7.50774
872501 6.77285
872546 5.95028
872592 5.54159
872638 5.31039
872730 5.06885
872821 4.94861
873005 4.80116
873096 4.65617
873142 4.48809
873188 4.15704
873244 3.32097
873300 2.11759
873328 1.76816
873356 1.75571
873412 2.27978
873463 2.78411
873514 3.14828
873615 3.57818
873716 3.82058
873817 4.00755
873918 4.22084
874020 4.56178
874121 5.23704
874222 6.73607
874400 12.5115
874489 12.5006
874578 10.2501
874661 8.46508
874745 7.29288
874828 6.52921
874911 6.01009
874994 5.64331
875078 5.39933
875161 5.38480
875202 5.68190
875223 6.06014
875244 6.75483
875300 10.5317
875328 10.4973
875356 9.03111
875379 7.99128
875402 7.25224
875447 6.36743
875492 5.88176
875538 5.57579
875628 5.19197
875719 4.93195
875900 4.49867
875991 4.27813
876082 4.13916
876141 4.36728
876200 5.38324
876230 6.13406
876259 6.72475
876318 7.00204
876429 6.40436
876540 5.94567
876650 5.66775
876761 5.48551
876982 5.25812
877204 5.11616
877647 4.92449
877868 4.82153
877979 4.71975
878089 4.57903
878095 5.14993
878100 7.00891
878105 9.98992
878111 9.48868
878120 7.08011
878130 6.15639
878150 5.52969
878189 5.18342
878267 5.00143
878423 4.89352
878736 4.80737
879362 4.71098
880613 4.57191
881864 4.41142
882489 4.24353
882646 4.16089
882802 4.03068
882959 3.79630
883115 3.47826
883157 3.72418
883200 4.75777
883243 6.11285
883285 6.43766
883410 5.67873
883472 5.43236
883534 5.26780
883659 5.07069
883783 4.96347
884032 4.87226
884281 4.87906
884530 4.98564
884778 5.26018
885027 5.89472
885276 7.37928
885700 13.0192
885912 13.0062
886124 10.6494
886378 8.28266
886631 6.67327
887200 3.28402
887342 2.72666
887485 2.52523
887769 2.71695
887975 2.92400
888180 3.04823
888385 3.08066
888488 3.09427
888540 3.14101
888591 3.29514
888645 3.84424
888673 4.50754
888700 5.67414
888727 7.35648
888755 8.79238
888782 8.97985
888809 8.22768
888846 7.04236
888882 6.17403
888956 5.20472
889029 4.72949
889102 4.46173
889248 4.18652
889394 4.07494
889540 4.08163
889687 4.25667
889833 4.76814
889979 6.00776
890140 8.87772
890300 12.1846
890461 12.2816
890621 10.4025
890736 9.08540
890793 8.51382
890851 8.21471
890875 8.58704
890900 10.2773
890925 13.1733
890949 12.7615
890974 11.1371
890999 10.0514
891023 9.37048
891048 8.90957
891097 8.31051
891147 7.91809
891246 7.39543
891344 7.03827
891542 6.55249
891740 6.22581
892135 5.80095
892530 5.52452
893320 5.10892
893518 4.98843
893715 4.82596
893913 4.55388
894110 4.12623
894155 4.34757
894200 5.34633
894245 6.68772
894290 7.01869
894382 6.46867
894474 6.04720
894566 5.79863
894658 5.63801
894842 5.43648
895026 5.30384
895394 5.07906
895578 4.90705
895670 4.75539
895716 4.66414
895762 4.77797
895781 5.29831
895791 5.95224
895800 7.10301
895819 10.1524
895838 9.80102
895859 8.12745
895880 7.14863
895922 6.28031
895964 5.91273
896006 5.71499
896091 5.50519
896175 5.39213
896343 5.26272
896512 5.17848
896849 5.01619
897017 4.84977
897102 4.64392
897144 4.47504
897165 4.53889
897175 4.93454
897186 6.49739
897200 12.3538
897207 12.5175
897214 10.8259
897225 8.72286
897236 7.59405
897258 6.56811
897301 5.87987
897345 5.62478
897388 5.49297
897475 5.35606
897562 5.28367
897737 5.20404
897911 5.15777
898259 5.10047
898607 5.06255
899304 5.01010
900000 4.97262
900000 4.95079
900870 4.95749
901000 4.59529
901820 2.30849
902170 2.05109
903120 3.05029
903480 4.37039
903830 6.17949
904780 5.75899
905260 4.64139
905970 6.16749
907290 4.51789
908840 4.45559
910160 4.42059
910760 4.71909
911840 4.20109
912570 5.81369
913290 4.83809
914010 5.43299
914380 4.66639
916070 3.99009
916560 4.05059
917040 4.94219
917650 4.17749
918260 4.51389
919350 3.64869
920570 3.66199
921430 7.31589
922530 4.35329
923630 4.65719
924370 4.63439
924980 6.58609
925720 4.18539
926460 4.43749
927330 3.89109
928190 3.98579
929060 4.04739
929550 4.72159
930300 4.56099
930790 5.92769
931790 4.64749
932660 4.51009
934400 4.28519
935400 5.00709
936400 4.18439
938030 4.00879
939420 4.46249
940300 4.11449
940680 3.59089
941430 4.17419
942070 5.54079
942830 4.58539
943460 4.46749
943970 3.88769
944850 4.88499
945230 3.73949
945870 4.66019
947650 3.66199
948040 3.98569
949060 4.99639
949700 3.87549
950340 4.61869
950850 3.65859
951490 4.87379
952000 5.80609
952650 4.85429
953290 5.51989
954060 4.99339
954710 6.85559
955740 5.00479
957290 4.44789
957940 4.81149
959110 4.11409
960930 4.12219
961450 5.17849
961970 4.69989
962620 5.21269
963280 5.72139
963930 3.91339
964710 4.30659
965500 8.13959
966810 4.84219
969180 3.89489
969710 4.12819
970240 4.92499
970770 5.10690
971300 5.58710
972090 4.95159
973150 6.58399
974620 4.13530
977010 4.75140
978620 4.53080
979560 3.58590
980230 5.51390
981030 4.16210
982920 3.92650
983720 4.52530
984400 4.23840
985070 5.00730
985750 3.30930
986160 3.42180
986830 4.16830
987650 4.20440
988600 5.29700
989280 4.67170
989960 5.74750
990500 5.03070
991590 7.27420
992550 6.00880
993370 4.88260
993920 4.40450
994600 7.36370
995570 5.23540
997490 4.08510
998460 4.56560
999840 6.08420
1.00000E+06 5.79310
1.00070E+06 4.52330
1.00320E+06 3.84180
1.00390E+06 3.89530
1.00460E+06 4.94540
1.00530E+06 4.86290
1.00610E+06 8.29010
1.00730E+06 5.06460
1.00800E+06 6.76760
1.00920E+06 4.83030
1.01130E+06 4.25030
1.01210E+06 3.83290
1.01320E+06 5.29740
1.01520E+06 3.71070
1.01590E+06 4.23140
1.01680E+06 7.63150
1.01780E+06 5.92330
1.01890E+06 5.59500
1.01980E+06 6.06620
1.02050E+06 6.11550
1.02220E+06 3.70340
1.02360E+06 4.04490
1.02750E+06 4.03010
1.02820E+06 5.58520
1.03020E+06 4.45590
1.03260E+06 3.89250
1.03300E+06 3.53980
1.03400E+06 3.91650
1.03490E+06 4.24790
1.03580E+06 3.63650
1.03680E+06 5.94290
1.03930E+06 4.19140
1.04030E+06 4.27840
1.04130E+06 5.16920
1.04220E+06 3.85940
1.04350E+06 3.74740
1.04470E+06 4.87130
1.04510E+06 3.75980
1.04560E+06 4.14320
1.04630E+06 6.86550
1.04750E+06 4.95020
1.04800E+06 4.49380
1.04870E+06 5.72200
1.04970E+06 4.24430
1.05050E+06 5.52820
1.05080E+06 6.63430
1.05170E+06 5.13440
1.05200E+06 4.16800
1.05260E+06 4.04400
1.05380E+06 9.06000
1.05530E+06 7.14450
1.05680E+06 5.61690
1.06020E+06 4.12680
1.06110E+06 5.33340
1.06200E+06 4.18070
1.06260E+06 4.49700
1.06450E+06 3.92650
1.06520E+06 3.18260
1.06600E+06 4.92090
1.06690E+06 3.67980
1.06780E+06 3.94980
1.06800E+06 3.39920
1.06840E+06 3.89230
1.06900E+06 5.77680
1.06980E+06 5.66350
1.07060E+06 5.99650
1.07160E+06 6.62330
1.07290E+06 8.61490
1.07420E+06 5.33660
1.07790E+06 4.97330
1.07930E+06 4.29480
1.08000E+06 3.99560
1.08120E+06 5.71210
1.08260E+06 4.01920
1.08310E+06 4.00890
1.08390E+06 6.98620
1.08480E+06 6.21780
1.08530E+06 6.29220
1.08600E+06 4.50790
1.08710E+06 4.25200
1.08890E+06 7.06150
1.09080E+06 5.20990
1.09440E+06 4.43000
1.09530E+06 5.77080
1.09640E+06 2.66330
1.09680E+06 2.48400
1.09740E+06 3.23090
1.09820E+06 5.92960
1.09950E+06 7.38600
1.10000E+06 6.18300
1.10110E+06 3.53710
1.10250E+06 3.34930
1.10300E+06 3.32970
1.10330E+06 3.62830
1.10430E+06 4.03180
1.10490E+06 4.89820
1.10640E+06 3.50060
1.10760E+06 4.79340
1.10930E+06 4.05220
1.11150E+06 4.42320
1.11220E+06 5.99210
1.11350E+06 5.88560
1.11400E+06 4.59810
1.11610E+06 7.78450
1.11700E+06 5.17760
1.11800E+06 7.19080
1.11920E+06 4.96550
1.12050E+06 7.25790
1.12200E+06 4.92260
1.12410E+06 5.43210
1.12490E+06 5.26670
1.12610E+06 6.46280
1.12690E+06 6.96510
1.12770E+06 5.00430
1.12960E+06 4.74140
1.13140E+06 3.92990
1.13270E+06 7.21900
1.13440E+06 6.77700
1.13560E+06 4.22380
1.13590E+06 4.07720
1.13660E+06 5.53220
1.13760E+06 5.85050
1.13840E+06 7.73420
1.13990E+06 3.53650
1.14110E+06 2.98690
1.14160E+06 2.74010
1.14230E+06 3.58810
1.14280E+06 4.82100
1.14360E+06 4.53900
1.14450E+06 6.54940
1.14580E+06 4.07080
1.14650E+06 4.44310
1.14690E+06 4.01050
1.14750E+06 3.94690
1.14860E+06 6.11980
1.15030E+06 4.18290
1.15150E+06 5.50420
1.15230E+06 3.98190
1.15280E+06 3.46660
1.15350E+06 4.41540
1.15440E+06 6.94280
1.15570E+06 6.83170
1.15760E+06 5.72230
1.15810E+06 5.09100
1.15970E+06 4.12170
1.16070E+06 4.55740
1.16140E+06 7.12020
1.16260E+06 4.62380
1.16350E+06 6.36500
1.16400E+06 7.42380
1.16470E+06 5.40820
1.16630E+06 6.56430
1.16890E+06 5.15080
1.16980E+06 6.15520
1.17150E+06 3.82960
1.17171E+06 3.82579
1.17171E+06 3.82577
1.17220E+06 3.81730
1.17310E+06 5.25980
1.17400E+06 3.66740
1.17520E+06 3.59550
1.17630E+06 6.72290
1.17750E+06 3.48180
1.17840E+06 3.28640
1.17930E+06 5.28350
1.18000E+06 7.37040
1.18080E+06 6.06320
1.18140E+06 5.08290
1.18300E+06 5.06610
1.18600E+06 5.39300
1.18710E+06 5.13820
1.18800E+06 5.46290
1.18910E+06 5.68150
1.19000E+06 4.43400
1.19090E+06 3.86240
1.19180E+06 5.71200
1.19270E+06 4.91980
1.19380E+06 4.04410
1.19560E+06 3.71340
1.19650E+06 3.57930
1.19660E+06 3.90520
1.19720E+06 3.23440
1.19760E+06 3.74970
1.19790E+06 3.12700
1.19900E+06 3.42900
1.19950E+06 4.78150
1.20000E+06 4.84410
1.20010E+06 4.85370
1.20080E+06 3.68680
1.20140E+06 3.28130
1.20170E+06 3.97460
1.20340E+06 5.50120
1.20410E+06 3.63360
1.20570E+06 3.57830
1.20720E+06 4.60910
1.20890E+06 3.97060
1.20960E+06 3.46260
1.21050E+06 4.53340
1.21160E+06 4.34160
1.21330E+06 6.58760
1.21570E+06 4.34860
1.21630E+06 4.89190
1.21790E+06 4.04090
1.22030E+06 4.20560
1.22090E+06 4.56190
1.22110E+06 3.97030
1.22150E+06 4.05720
1.22160E+06 3.66570
1.22330E+06 4.28930
1.22580E+06 3.86990
1.22650E+06 3.25040
1.22760E+06 5.00780
1.22880E+06 4.55930
1.22950E+06 4.42470
1.23100E+06 4.23300
1.23200E+06 3.46400
1.23440E+06 3.95820
1.23520E+06 5.16470
1.23630E+06 5.75090
1.23790E+06 7.49240
1.23920E+06 5.99090
1.24150E+06 4.64910
1.24320E+06 5.00850
1.24380E+06 4.35190
1.24550E+06 5.25280
1.24630E+06 4.36230
1.24760E+06 4.91760
1.24860E+06 3.81600
1.25110E+06 5.25190
1.25320E+06 4.06110
1.25400E+06 4.09300
1.25420E+06 3.52900
1.25520E+06 4.27770
1.25770E+06 4.62220
1.25910E+06 3.55990
1.26050E+06 5.10010
1.26140E+06 4.27150
1.26260E+06 5.24680
1.26340E+06 6.70630
1.26500E+06 4.32650
1.26750E+06 6.08780
1.26870E+06 6.06380
1.26970E+06 5.70060
1.27190E+06 4.49530
1.27410E+06 4.55860
1.27710E+06 5.22500
1.27920E+06 4.31620
1.28090E+06 4.57390
1.28310E+06 3.57960
1.28530E+06 4.99140
1.28690E+06 3.84470
1.28850E+06 4.70100
1.28910E+06 4.13080
1.29010E+06 4.45930
1.29110E+06 6.69240
1.29190E+06 4.83090
1.29260E+06 5.37310
1.29360E+06 4.59210
1.29440E+06 5.97990
1.29600E+06 3.97500
1.29770E+06 5.06340
1.29890E+06 4.05960
1.29970E+06 4.31610
1.30000E+06 4.59930
1.30090E+06 5.44980
1.30200E+06 5.11320
1.30280E+06 4.01230
1.30340E+06 3.86670
1.30420E+06 5.01300
1.30730E+06 5.77240
1.31040E+06 5.00750
1.31210E+06 4.68390
1.31310E+06 3.58930
1.31400E+06 4.86260
1.31440E+06 5.53940
1.31540E+06 3.47070
1.31790E+06 4.56160
1.31880E+06 4.64980
1.31980E+06 5.33170
1.32130E+06 3.90310
1.32190E+06 3.64230
1.32360E+06 4.58750
1.32510E+06 3.29790
1.32650E+06 3.56860
1.32680E+06 3.13970
1.32740E+06 4.20490
1.32780E+06 5.57030
1.32820E+06 6.13610
1.32910E+06 4.27480
1.33080E+06 4.59490
1.33180E+06 5.37730
1.33310E+06 4.39550
1.33460E+06 5.73470
1.33570E+06 4.22720
1.33720E+06 4.40730
1.33890E+06 4.00890
1.34040E+06 4.34260
1.34170E+06 4.43950
1.34270E+06 4.63110
1.34320E+06 5.11660
1.34430E+06 5.54110
1.34530E+06 4.25660
1.34680E+06 5.86770
1.34710E+06 5.51093
1.34711E+06 5.50380
1.34760E+06 4.91689
1.34790E+06 4.55889
1.34900E+06 4.97019
1.34970E+06 5.51339
1.35070E+06 3.59139
1.35290E+06 4.34979
1.35620E+06 5.08029
1.35680E+06 4.20849
1.35840E+06 4.59660
1.35880E+06 4.20209
1.35990E+06 3.92170
1.36100E+06 5.23500
1.36230E+06 4.49870
1.36360E+06 4.32010
1.36430E+06 5.34930
1.36560E+06 4.46590
1.36830E+06 4.32300
1.37070E+06 5.30740
1.37120E+06 4.56300
1.37230E+06 6.46230
1.37410E+06 4.17520
1.37490E+06 4.20010
1.37580E+06 4.14100
1.37780E+06 7.27250
1.37920E+06 5.99050
1.38080E+06 6.41970
1.38190E+06 6.16690
1.38280E+06 4.44280
1.38350E+06 5.05040
1.38500E+06 6.81600
1.38710E+06 5.02110
1.38960E+06 4.45770
1.39050E+06 5.82780
1.39110E+06 4.83170
1.39270E+06 6.01440
1.39390E+06 5.34450
1.39480E+06 5.53990
1.39590E+06 4.59950
1.39710E+06 5.13250
1.39770E+06 3.57330
1.40000E+06 4.35480
1.40140E+06 4.83020
1.40370E+06 4.49830
1.40600E+06 4.98690
1.40760E+06 3.66310
1.41020E+06 3.51860
1.41060E+06 3.41440
1.41230E+06 5.70130
1.41320E+06 4.11000
1.41460E+06 4.04030
1.41550E+06 4.03410
1.41690E+06 6.24070
1.41830E+06 5.31980
1.41970E+06 6.75270
1.42110E+06 4.76750
1.42300E+06 4.91620
1.42420E+06 4.72740
1.42530E+06 4.81920
1.42750E+06 4.13570
1.42820E+06 4.04470
1.42930E+06 5.90310
1.43080E+06 4.05060
1.43150E+06 3.69180
1.43270E+06 4.71210
1.43410E+06 4.26140
1.43550E+06 3.95440
1.43810E+06 4.36080
1.43930E+06 5.19370
1.44200E+06 3.95360
1.44290E+06 5.00730
1.44390E+06 6.33380
1.44680E+06 4.20530
1.44920E+06 4.58330
1.45160E+06 6.01850
1.45330E+06 5.64390
1.45520E+06 6.13080
1.45570E+06 6.51950
1.45690E+06 3.83250
1.45890E+06 3.90600
1.46110E+06 4.93770
1.46250E+06 4.68880
1.46350E+06 3.76980
1.46550E+06 5.26870
1.46670E+06 4.30410
1.46770E+06 4.54320
1.46920E+06 5.20730
1.46970E+06 5.42790
1.47040E+06 4.95370
1.47110E+06 3.75960
1.47310E+06 4.71590
1.47398E+06 5.21482
1.47398E+06 5.21709
1.47510E+06 5.85080
1.47610E+06 5.07200
1.47710E+06 4.32850
1.47980E+06 5.57030
1.48230E+06 3.86440
1.48350E+06 4.30960
1.48580E+06 4.17410
1.48760E+06 5.60360
1.49230E+06 5.78000
1.49380E+06 7.05280
1.49560E+06 4.98710
1.49660E+06 6.12540
1.49790E+06 6.46260
1.49920E+06 5.88050
1.50000E+06 6.14320
1.50070E+06 6.37330
1.50250E+06 4.27350
1.50400E+06 4.75920
1.50500E+06 3.48250
1.50600E+06 3.50760
1.50680E+06 5.82390
1.50780E+06 6.34390
1.51010E+06 4.94590
1.51320E+06 4.74410
1.51740E+06 6.25010
1.52180E+06 3.55320
1.52460E+06 3.79860
1.52620E+06 6.15180
1.52720E+06 6.01100
1.52850E+06 5.70790
1.52960E+06 6.39520
1.53110E+06 4.87560
1.53380E+06 4.99770
1.53530E+06 4.74740
1.54040E+06 4.16000
1.54190E+06 5.44920
1.54330E+06 4.33900
1.54410E+06 5.22920
1.54540E+06 4.14410
1.54750E+06 4.96300
1.54830E+06 4.70630
1.55130E+06 5.20920
1.55290E+06 4.39560
1.55420E+06 4.62660
1.55690E+06 4.37800
1.55930E+06 4.81010
1.56120E+06 5.26370
1.56230E+06 5.25020
1.56360E+06 4.06810
1.56530E+06 3.91370
1.56690E+06 3.89230
1.56800E+06 3.96230
1.57180E+06 3.88150
1.57450E+06 6.24980
1.57720E+06 5.34820
1.58000E+06 4.36430
1.58250E+06 3.75460
1.58470E+06 3.79620
1.58630E+06 5.99970
1.58910E+06 4.47140
1.59100E+06 4.53280
1.59210E+06 4.98020
1.59350E+06 4.49530
1.59550E+06 6.92530
1.59660E+06 5.20380
1.59850E+06 5.46900
1.60000E+06 5.01300
1.60050E+06 4.86020
1.60250E+06 4.90940
1.60360E+06 6.02050
1.60560E+06 4.25290
1.60920E+06 5.14510
1.61150E+06 6.50560
1.61320E+06 4.49800
1.61490E+06 5.04300
1.61660E+06 3.25510
1.61770E+06 3.76930
1.61890E+06 6.71020
1.62060E+06 5.92190
1.62170E+06 7.00270
1.62490E+06 4.63610
1.62720E+06 5.32710
1.63000E+06 3.72020
1.63260E+06 5.17730
1.63470E+06 5.03470
1.63580E+06 5.82820
1.63750E+06 4.80870
1.64070E+06 6.70170
1.64280E+06 7.38320
1.64480E+06 5.09640
1.64950E+06 5.37530
1.65100E+06 3.85550
1.65270E+06 5.27810
1.65660E+06 5.43250
1.65770E+06 5.09310
1.66160E+06 6.67160
1.66390E+06 3.87990
1.66570E+06 4.37320
1.66780E+06 4.82860
1.67050E+06 5.16590
1.67320E+06 4.00820
1.67500E+06 5.26770
1.67710E+06 5.87990
1.67950E+06 5.37890
1.67980E+06 4.43970
1.68280E+06 3.98700
1.68430E+06 5.24540
1.68550E+06 4.29610
1.68740E+06 5.44310
1.68890E+06 4.44480
1.69020E+06 4.55330
1.69070E+06 4.59460
1.69220E+06 5.74470
1.69229E+06 5.71545
1.69340E+06 5.35520
1.69500E+06 6.27890
1.69620E+06 5.21520
1.69770E+06 5.31860
1.69890E+06 4.27310
1.70000E+06 5.22620
1.70020E+06 5.39950
1.70320E+06 4.89170
1.70660E+06 4.89540
1.70830E+06 5.29430
1.70910E+06 5.48190
1.71090E+06 4.61540
1.71184E+06 5.00905
1.71184E+06 5.01031
1.71400E+06 5.91470
1.71780E+06 5.27180
1.71900E+06 5.25610
1.72120E+06 5.25460
1.72310E+06 4.32390
1.72430E+06 3.95680
1.72590E+06 5.04000
1.72720E+06 6.51050
1.72900E+06 4.88370
1.73350E+06 4.70860
1.73880E+06 6.03590
1.73950E+06 4.84000
1.74110E+06 3.95440
1.74230E+06 4.37400
1.74360E+06 5.41540
1.74520E+06 4.33640
1.74680E+06 5.62430
1.74840E+06 5.72740
1.75030E+06 5.36880
1.75260E+06 5.41870
1.75350E+06 5.99930
1.75580E+06 4.26520
1.75740E+06 6.29310
1.76380E+06 5.16880
1.76480E+06 5.62160
1.76680E+06 4.22770
1.76770E+06 5.22960
1.76900E+06 6.77140
1.77030E+06 4.27300
1.77060E+06 4.15480
1.77130E+06 3.87950
1.77290E+06 5.40560
1.77520E+06 4.39020
1.77750E+06 4.90430
1.77920E+06 6.72480
1.78150E+06 5.11840
1.78840E+06 4.66020
1.79170E+06 4.24790
1.79294E+06 4.86684
1.79370E+06 5.24740
1.79500E+06 3.95560
1.79700E+06 4.98540
1.79900E+06 6.89730
1.80000E+06 6.48610
1.80200E+06 5.66260
1.80570E+06 4.48880
1.80810E+06 4.97460
1.81040E+06 6.61530
1.81750E+06 5.24100
1.82160E+06 7.04520
1.82300E+06 7.19220
1.82470E+06 5.03560
1.82570E+06 4.84260
1.82600E+06 5.54910
1.82980E+06 4.14450
1.83290E+06 5.48890
1.83390E+06 4.68020
1.83700E+06 4.60580
1.83980E+06 5.27480
1.84220E+06 5.61550
1.84460E+06 5.38930
1.84770E+06 4.86230
1.84840E+06 5.44770
1.85120E+06 4.04780
1.85370E+06 4.84070
1.85470E+06 4.19100
1.85750E+06 5.49200
1.86000E+06 3.93530
1.86140E+06 4.78020
1.86450E+06 7.04000
1.86770E+06 6.71490
1.87020E+06 4.80520
1.87300E+06 7.07500
1.87730E+06 4.25840
1.87870E+06 4.91860
1.88230E+06 5.36660
1.88730E+06 5.37850
1.88870E+06 5.70340
1.89120E+06 3.98510
1.89270E+06 5.21740
1.89520E+06 4.24520
1.89590E+06 4.10400
1.89840E+06 5.99340
1.90000E+06 5.70140
1.90170E+06 5.39080
1.90720E+06 5.91220
1.90750E+06 6.60360
1.90830E+06 6.19440
1.91010E+06 6.31490
1.91120E+06 5.38990
1.91300E+06 5.86060
1.91340E+06 4.73370
1.91520E+06 3.81070
1.91670E+06 4.73730
1.91850E+06 6.33080
1.92110E+06 5.11180
1.92260E+06 6.27760
1.92400E+06 5.85360
1.92590E+06 5.52030
1.92740E+06 5.31270
1.93000E+06 6.31030
1.93220E+06 5.53280
1.93520E+06 6.55430
1.93930E+06 5.90330
1.93960E+06 5.21690
1.94300E+06 5.41050
1.94380E+06 4.71670
1.94600E+06 6.29560
1.94980E+06 4.60260
1.95130E+06 5.50470
1.95470E+06 5.41400
1.95660E+06 5.81370
1.95810E+06 5.09850
1.96300E+06 5.96000
1.96570E+06 4.58560
1.97000E+06 5.70030
2.00000E+06 5.81030
2.00749E+06 5.83912
2.00749E+06 5.83913
2.00780E+06 5.84040
2.00800E+06 5.83910
2.02500E+06 5.90000
2.04500E+06 7.00010
2.06000E+06 6.60000
2.06500E+06 7.10000
2.09000E+06 5.79990
2.10000E+06 6.25010
2.11000E+06 6.70000
2.14200E+06 6.00020
2.15300E+06 6.59990
2.15842E+06 6.46257
2.17040E+06 6.16420
2.17060E+06 6.16090
2.17300E+06 6.10010
2.19000E+06 6.90010
2.20000E+06 6.30010
2.20500E+06 6.00010
2.20746E+06 6.12254
2.21080E+06 6.29000
2.21098E+06 6.29901
2.21099E+06 6.29931
2.21500E+06 6.50030
2.22080E+06 6.16850
2.22200E+06 6.09990
2.23600E+06 6.60000
2.24665E+06 6.45271
2.25000E+06 6.40710
2.26100E+06 6.25530
2.26500E+06 6.19990
2.27800E+06 7.20020
2.29000E+06 6.90000
2.30000E+06 7.34450
2.30800E+06 7.70000
2.32634E+06 7.11624
2.33000E+06 7.00010
2.34000E+06 7.39990
2.35140E+06 7.00910
2.35200E+06 6.98850
2.37500E+06 6.20000
2.38400E+06 7.29990
2.39587E+06 7.23633
2.39650E+06 7.23340
2.39670E+06 7.23340
2.40000E+06 7.21680
2.40300E+06 7.20010
2.40310E+06 7.20453
2.40310E+06 7.20462
2.41200E+06 7.60010
2.42700E+06 7.10010
2.43497E+06 7.28330
2.44000E+06 7.40000
2.46000E+06 6.20010
2.47000E+06 6.80010
2.48300E+06 6.39990
2.50000E+06 7.70000
2.51220E+06 7.26080
2.52500E+06 6.80000
2.53840E+06 7.36420
2.54400E+06 7.60010
2.56000E+06 6.50020
2.59500E+06 6.39990
2.60000E+06 6.97670
2.60800E+06 7.90000
2.62760E+06 7.63230
2.63000E+06 7.60020
2.63600E+06 7.89940
2.63670E+06 7.89220
2.63680E+06 7.87330
2.64670E+06 7.54360
2.64690E+06 7.53600
2.65000E+06 7.43340
2.65700E+06 7.20000
2.66081E+06 7.37505
2.67000E+06 7.80010
2.67132E+06 7.72095
2.67500E+06 7.50030
2.68000E+06 7.19990
2.69500E+06 7.40010
2.70000E+06 7.23330
2.71000E+06 6.89990
2.72000E+06 7.50010
2.73930E+06 7.19870
2.75000E+06 7.03220
2.75200E+06 6.99990
2.76600E+06 8.59990
2.79300E+06 7.30050
2.79584E+06 7.26717
2.79585E+06 7.26710
2.79640E+06 7.26090
2.79660E+06 7.25950
2.80000E+06 7.22210
2.81370E+06 7.07000
2.82000E+06 7.00000
2.83380E+06 7.00000
2.84020E+06 6.99981
2.84020E+06 6.99981
2.84400E+06 7.00020
2.86300E+06 7.89990
2.87862E+06 7.23030
2.88400E+06 6.99970
2.90000E+06 7.90010
2.91300E+06 7.59970
2.92300E+06 7.90010
2.93000E+06 7.55010
2.94314E+06 8.02703
2.94314E+06 8.02714
2.95200E+06 8.34960
2.95404E+06 8.30732
2.95440E+06 8.29990
2.97450E+06 7.88194
2.97700E+06 7.83040
2.98300E+06 8.04000
2.99861E+06 7.83147
2.99861E+06 7.83141
3.00000E+06 7.81380
3.00400E+06 7.76010
3.01500E+06 8.34980
3.02500E+06 7.85010
3.03160E+06 7.79230
3.03180E+06 7.79490
3.06200E+06 7.54960
3.06490E+06 7.73490
3.07000E+06 8.05960
3.07170E+06 8.02510
3.07190E+06 8.02190
3.10000E+06 7.45980
3.10300E+06 7.40020
3.12500E+06 8.24940
3.13000E+06 7.90010
3.13500E+06 8.30040
3.14030E+06 8.06630
3.15200E+06 7.54990
3.16400E+06 7.87000
3.17500E+06 7.52990
3.19550E+06 7.55610
3.20000E+06 7.56210
3.20600E+06 7.56980
3.21340E+06 8.00620
3.21500E+06 8.09970
3.21570E+06 8.07890
3.21760E+06 8.02230
3.22500E+06 7.80010
3.23000E+06 8.20030
3.23770E+06 7.96900
3.24000E+06 7.89990
3.25000E+06 8.21280
3.25600E+06 8.40020
3.26570E+06 8.34800
3.26590E+06 8.34980
3.28290E+06 8.26300
3.29500E+06 8.20240
3.29610E+06 8.23430
3.30000E+06 8.35140
3.31000E+06 8.65190
3.31410E+06 8.48730
3.31620E+06 8.40380
3.33000E+06 7.85220
3.34500E+06 8.40270
3.35000E+06 8.00280
3.36500E+06 8.45350
3.39830E+06 7.82200
3.39850E+06 7.81330
3.40000E+06 7.78370
3.42070E+06 7.38850
3.42500E+06 7.30560
3.42560E+06 7.31030
3.44270E+06 7.45860
3.46970E+06 7.68880
3.46990E+06 7.69410
3.48300E+06 7.80730
3.48790E+06 7.75980
3.49200E+06 7.72060
3.50000E+06 7.64300
3.51610E+06 7.48700
3.51710E+06 7.48010
3.52000E+06 7.46110
3.52010E+06 7.45210
3.53920E+06 7.80710
3.55000E+06 8.00790
3.56400E+06 7.15030
3.57000E+06 7.60830
3.57720E+06 7.61340
3.57740E+06 7.61460
3.59740E+06 7.63210
3.60000E+06 7.63450
3.61500E+06 7.64800
3.61760E+06 7.57920
3.63000E+06 7.25100
3.63760E+06 7.47280
3.64700E+06 7.74750
3.64970E+06 7.55280
3.66280E+06 7.54510
3.70000E+06 7.52280
3.72500E+06 7.50720
3.72590E+06 7.51380
3.72620E+06 7.51230
3.73920E+06 7.55800
3.74320E+06 7.57210
3.75000E+06 7.59650
3.76810E+06 7.65220
3.76840E+06 7.65600
3.79450E+06 7.74050
3.80000E+06 7.75830
3.81300E+06 7.80040
3.83560E+06 7.41020
3.83600E+06 7.41040
3.87260E+06 7.51550
3.87280E+06 7.51590
3.90000E+06 7.59360
3.91000E+06 7.62210
3.91910E+06 7.64840
3.92800E+06 7.67300
3.93200E+06 7.50800
3.93890E+06 7.51360
3.98040E+06 7.54760
4.00000E+06 7.56390
4.00820E+06 7.56740
4.00840E+06 7.57250
4.02460E+06 7.59040
4.05970E+06 7.62890
4.06980E+06 7.64000
4.07980E+06 7.65110
4.09570E+06 7.66870
4.10000E+06 7.67300
4.10890E+06 7.68240
4.13300E+06 7.70830
4.14010E+06 7.71530
4.14490E+06 7.69650
4.14500E+06 7.72270
4.14710E+06 7.70580
4.16020E+06 7.60100
4.18030E+06 7.43990
4.19000E+06 7.36180
4.20000E+06 7.37570
4.20140E+06 7.37570
4.21085E+06 7.39445
4.22030E+06 7.41320
4.22050E+06 7.39850
4.23050E+06 7.41070
4.24025E+06 7.42235
4.25000E+06 7.43400
4.26250E+06 7.44513
4.27500E+06 7.45625
4.28750E+06 7.46738
4.30000E+06 7.47850
4.30870E+06 7.23090
4.31100E+06 7.16710
4.32050E+06 7.42035
4.33000E+06 7.67360
4.34495E+06 7.64990
4.35990E+06 7.62620
4.36993E+06 7.61023
4.37995E+06 7.59425
4.38998E+06 7.57828
4.40000E+06 7.56230
4.42000E+06 7.53570
4.42140E+06 7.53530
4.43855E+06 7.51405
4.45570E+06 7.49280
4.47285E+06 7.47155
4.49000E+06 7.45030
4.50000E+06 7.35200
4.51500E+06 7.20090
4.53000E+06 7.04980
4.55000E+06 7.53730
4.56250E+06 7.52063
4.57500E+06 7.50395
4.58750E+06 7.48728
4.60000E+06 7.47060
4.65000E+06 7.40400
4.70000E+06 7.33740
4.74000E+06 7.28380
4.77300E+06 7.50810
4.80000E+06 7.47330
4.90000E+06 7.34460
5.00000E+06 7.21570
5.05000E+06 7.17615
5.10000E+06 7.13660
5.15000E+06 7.09705
5.20000E+06 7.05750
5.30000E+06 6.97830
5.40000E+06 6.89910
5.50000E+06 6.81990
5.60000E+06 6.73785
5.70000E+06 6.65480
5.80000E+06 6.57429
5.89118E+06 6.50070
5.98235E+06 6.42710
5.98312E+06 6.42660
6.00000E+06 6.41480
6.10472E+06 6.34200
6.20000E+06 6.27670
6.20117E+06 6.27590
6.23456E+06 6.25330
6.27639E+06 6.22510
6.31446E+06 6.19970
6.35019E+06 6.17600
6.40000E+06 6.14340
6.42104E+06 6.12970
6.49085E+06 6.08490
6.49694E+06 6.08100
6.49858E+06 6.07990
6.60000E+06 6.01650
6.65015E+06 5.98590
6.65186E+06 5.98480
6.67078E+06 5.97340
6.69979E+06 5.95600
6.80000E+06 5.89730
6.90000E+06 5.84205
7.00000E+06 5.78680
7.11623E+06 5.72660
7.13285E+06 5.71830
7.17376E+06 5.69800
7.20000E+06 5.68530
7.24922E+06 5.66170
7.29028E+06 5.64250
7.40000E+06 5.59300
7.50000E+06 5.55140
7.60000E+06 5.50980
7.62612E+06 5.49960
7.69346E+06 5.47390
7.70752E+06 5.46870
7.80000E+06 5.43530
7.82007E+06 5.42830
8.00000E+06 5.36900
8.04282E+06 5.35580
8.12780E+06 5.33060
8.31390E+06 5.28250
8.50000E+06 5.23440
8.62500E+06 5.20978
8.75000E+06 5.18515
8.87500E+06 5.16053
9.00000E+06 5.13590
9.01969E+06 5.13260
9.07973E+06 5.12414
9.13977E+06 5.11567
9.19981E+06 5.10721
9.25985E+06 5.09875
9.31988E+06 5.09029
9.37992E+06 5.08183
9.43996E+06 5.07336
9.50000E+06 5.06490
9.62500E+06 5.05288
9.75000E+06 5.04085
9.87500E+06 5.02883
1.00000E+07 5.01680
1.01250E+07 5.00993
1.02500E+07 5.00305
1.03750E+07 4.99618
1.05000E+07 4.98930
1.05219E+07 4.98860
1.06414E+07 4.98688
1.07610E+07 4.98515
1.08805E+07 4.98342
1.10000E+07 4.98170
1.11250E+07 4.98455
1.12500E+07 4.98740
1.13750E+07 4.99025
1.15000E+07 4.99310
1.15027E+07 4.99320
1.16186E+07 4.99983
1.17344E+07 5.00645
1.18503E+07 5.01308
1.19661E+07 5.01970
1.20000E+07 5.02220
1.20190E+07 5.02360
1.21234E+07 5.03190
1.21443E+07 5.03360
1.23926E+07 5.05620
1.25000E+07 5.06700
1.26381E+07 5.08180
1.27467E+07 5.09400
1.27696E+07 5.09670
1.29108E+07 5.11360
1.30000E+07 5.12460
1.30386E+07 5.12950
1.30485E+07 5.13070
1.31897E+07 5.14910
1.35000E+07 5.19140
1.35142E+07 5.19340
1.37382E+07 5.22530
1.38160E+07 5.23650
1.39572E+07 5.25710
1.40000E+07 5.26330
1.42544E+07 5.30070
1.43798E+07 5.31910
1.45000E+07 5.33660
1.45906E+07 5.34957
1.46812E+07 5.36255
1.47718E+07 5.37552
1.48624E+07 5.38850
1.48735E+07 5.39010
1.48923E+07 5.39270
1.50000E+07 5.40770
1.52500E+07 5.44079
1.55000E+07 5.47390
1.60000E+07 5.53350
1.60354E+07 5.53740
1.63088E+07 5.56660
1.63963E+07 5.57540
1.65000E+07 5.58560
1.65333E+07 5.58880
1.67991E+07 5.61300
1.69116E+07 5.62270
1.70000E+07 5.63000
1.70888E+07 5.63704
1.71009E+07 5.63800
1.71665E+07 5.64310
1.72422E+07 5.64880
1.75000E+07 5.66709
1.75778E+07 5.67219
1.77020E+07 5.68009
1.80000E+07 5.69750
1.80377E+07 5.69950
1.83133E+07 5.71339
1.84112E+07 5.71789
1.85000E+07 5.72188
1.86318E+07 5.72738
1.87688E+07 5.73269
1.90000E+07 5.74090
1.90346E+07 5.74200
1.92879E+07 5.74958
1.92907E+07 5.74958
1.93265E+07 5.75057
1.93363E+07 5.75087
1.93993E+07 5.75247
1.94752E+07 5.75437
1.95000E+07 5.75497
1.95363E+07 5.75577
1.97449E+07 5.76017
1.98485E+07 5.76208
2.00000E+07 5.76450
2.00000E+07 5.76469
2.10000E+07 5.77060
2.20000E+07 5.75890
2.30000E+07 5.72770
2.40000E+07 5.67560
2.50000E+07 5.60270
2.60000E+07 5.51260
2.70000E+07 5.41100
2.80000E+07 5.30400
2.90000E+07 5.19710
3.00000E+07 5.09330
3.10000E+07 4.99430
3.20000E+07 4.90030
3.30000E+07 4.81100
3.40000E+07 4.72650
3.50000E+07 4.64720
3.60000E+07 4.57460
3.70000E+07 4.50950
3.80000E+07 4.45290
3.90000E+07 4.40530
4.00000E+07 4.36640
4.10000E+07 4.33580
4.20000E+07 4.31270
4.30000E+07 4.29650
4.40000E+07 4.28660
4.50000E+07 4.28220
4.60000E+07 4.28300
4.70000E+07 4.28860
4.80000E+07 4.29850
4.90000E+07 4.31230
5.00000E+07 4.32930
5.10000E+07 4.34930
5.20000E+07 4.37180
5.30000E+07 4.39600
5.40000E+07 4.42160
5.50000E+07 4.44820
5.60000E+07 4.47540
5.70000E+07 4.50300
5.80000E+07 4.53070
5.90000E+07 4.55800
6.00000E+07 4.58500
6.10000E+07 4.61130
6.20000E+07 4.63680
6.30000E+07 4.66130
6.40000E+07 4.68460
6.50000E+07 4.70680
6.60000E+07 4.72740
6.70000E+07 4.74680
6.80000E+07 4.76460
6.90000E+07 4.78080
7.00000E+07 4.79550
7.10000E+07 4.80860
7.20000E+07 4.82010
7.30000E+07 4.82990
7.40000E+07 4.83810
7.50000E+07 4.84480
7.60000E+07 4.84990
7.70000E+07 4.85350
7.80000E+07 4.85560
7.90000E+07 4.85620
8.00000E+07 4.85540
8.10000E+07 4.85320
8.20000E+07 4.84960
8.30000E+07 4.84490
8.40000E+07 4.83890
8.50000E+07 4.83170
8.60000E+07 4.82330
8.70000E+07 4.81390
8.80000E+07 4.80350
8.90000E+07 4.79210
9.00000E+07 4.77980
9.10000E+07 4.76660
9.20000E+07 4.75260
9.30000E+07 4.73780
9.40000E+07 4.72230
9.50000E+07 4.70610
9.60000E+07 4.68920
9.70000E+07 4.67170
9.80000E+07 4.65380
9.90000E+07 4.63530
1.00000E+08 4.61620
1.02000E+08 4.57710
1.04000E+08 4.53640
1.06000E+08 4.49470
1.08000E+08 4.45200
1.10000E+08 4.40860
1.12000E+08 4.36460
1.14000E+08 4.32040
1.16000E+08 4.27590
1.18000E+08 4.23160
1.20000E+08 4.18710
1.22000E+08 4.14300
1.24000E+08 4.09940
1.26000E+08 4.05620
1.28000E+08 4.01340
1.30000E+08 3.97130
1.32000E+08 3.92970
1.34000E+08 3.88880
1.36000E+08 3.84880
1.38000E+08 3.80950
1.40000E+08 3.77110
1.42000E+08 3.73330
1.44000E+08 3.69650
1.46000E+08 3.66060
1.48000E+08 3.62550
1.50000E+08 3.59130
1.52000E+08 3.55780
1.54000E+08 3.52530
1.56000E+08 3.49390
1.58000E+08 3.46310
1.60000E+08 3.43310
1.62000E+08 3.40410
1.64000E+08 3.37600
1.66000E+08 3.34870
1.68000E+08 3.32190
1.70000E+08 3.29620
1.72000E+08 3.27130
1.74000E+08 3.24710
1.76000E+08 3.22360
1.78000E+08 3.20080
1.80000E+08 3.17870
1.82000E+08 3.15750
1.84000E+08 3.13690
1.86000E+08 3.11670
1.88000E+08 3.09740
1.90000E+08 3.07870
1.92000E+08 3.06070
1.94000E+08 3.04300
1.96000E+08 3.02620
1.98000E+08 3.00990
2.00000E+08 2.99400