P-31(n,tot) ENDF/B-VII.1
Energy(eV) XS(b)
1.00000E-05 12.3994
1.09051E-05 12.0498
1.17640E-05 11.7561
1.25708E-05 11.5081
1.33221E-05 11.2976
1.47465E-05 10.9435
1.50000E-05 10.8883
1.59138E-05 10.6895
1.68495E-05 10.5051
1.83573E-05 10.2383
2.00000E-05 9.98251
2.18102E-05 9.73478
2.35280E-05 9.52660
2.51417E-05 9.35075
2.66442E-05 9.20157
2.75000E-05 9.12619
2.94929E-05 8.95063
3.18275E-05 8.77057
3.36990E-05 8.63991
3.50000E-05 8.55830
3.67146E-05 8.45075
4.00000E-05 8.26948
4.36203E-05 8.09389
4.70559E-05 7.94633
5.00000E-05 7.83264
5.02833E-05 7.82170
5.32883E-05 7.71596
5.89856E-05 7.53809
6.36549E-05 7.41046
6.73979E-05 7.31785
7.34291E-05 7.18378
7.50000E-05 7.15306
8.00000E-05 7.05529
8.72406E-05 6.93084
9.41117E-05 6.82625
0.000100000 6.74566
0.000100566 6.73792
0.000106576 6.66297
0.000117971 6.53690
0.000127310 6.44643
0.000134796 6.38079
0.000146858 6.28576
0.000150000 6.26399
0.000160000 6.19469
0.000174481 6.10648
0.000188223 6.03235
0.000200000 5.97522
0.000201133 5.96973
0.000213153 5.91661
0.000235942 5.82725
0.000254619 5.76313
0.000269591 5.71661
0.000275000 5.70150
0.000293716 5.64925
0.000320000 5.58470
0.000348962 5.52217
0.000350000 5.52019
0.000376447 5.46963
0.000402266 5.42525
0.000426306 5.38760
0.000471885 5.32426
0.000500000 5.29005
0.000509240 5.27881
0.000539184 5.24584
0.000587433 5.19809
0.000640000 5.15234
0.000697925 5.10803
0.000750000 5.07274
0.000752894 5.07078
0.000804532 5.03933
0.000852612 5.01264
0.000943770 4.96775
0.00100000 4.94350
0.00101848 4.93553
0.00107837 4.91216
0.00117487 4.87832
0.00128000 4.84589
0.00139585 4.81448
0.00150000 4.78947
0.00150579 4.78808
0.00160907 4.76579
0.00170523 4.74687
0.00188754 4.71505
0.00200000 4.69787
0.00203696 4.69222
0.00215674 4.67565
0.00234973 4.65167
0.00256000 4.62868
0.00275000 4.61042
0.00279170 4.60642
0.00301158 4.58771
0.00321813 4.57190
0.00341045 4.55850
0.00350000 4.55296
0.00377508 4.53594
0.00407392 4.51976
0.00431347 4.50802
0.00469946 4.49102
0.00500000 4.47937
0.00512000 4.47473
0.00558340 4.45894
0.00602315 4.44568
0.00643626 4.43448
0.00682090 4.42498
0.00750000 4.41009
0.00755016 4.40899
0.00814783 4.39752
0.00862694 4.38920
0.00939893 4.37715
0.0100000 4.36890
0.0102400 4.36560
0.0111668 4.35442
0.0120463 4.34502
0.0128725 4.33708
0.0136418 4.33034
0.0150000 4.31979
0.0151003 4.31901
0.0162957 4.31088
0.0172539 4.30498
0.0187979 4.29644
0.0200000 4.29059
0.0204800 4.28826
0.0215912 4.28338
0.0233722 4.27630
0.0253000 4.26950
0.0275899 4.26224
0.0297628 4.25614
0.0318042 4.25099
0.0337048 4.24663
0.0373084 4.23929
0.0376500 4.23868
0.0402618 4.23403
0.0426292 4.23022
0.0464439 4.22470
0.0500000 4.22017
0.0506000 4.21941
0.0551797 4.21430
0.0595257 4.21000
0.0636083 4.20637
0.0674097 4.20330
0.0746168 4.19813
0.0750000 4.19789
0.0805235 4.19442
0.0852584 4.19174
0.0928878 4.18785
0.100000 4.18466
0.101200 4.18412
0.110359 4.18052
0.119051 4.17749
0.127217 4.17494
0.134819 4.17277
0.149234 4.16913
0.150000 4.16896
0.161047 4.16652
0.170517 4.16463
0.185776 4.16189
0.200000 4.15964
0.202400 4.15926
0.220719 4.15673
0.238103 4.15459
0.254433 4.15279
0.269639 4.15127
0.275000 4.15079
0.298467 4.14870
0.322094 4.14686
0.341034 4.14553
0.350000 4.14496
0.371551 4.14360
0.404800 4.14175
0.441438 4.13996
0.476206 4.13846
0.500000 4.13754
0.508867 4.13719
0.539277 4.13612
0.596935 4.13431
0.644188 4.13301
0.682067 4.13208
0.743103 4.13072
0.750000 4.13058
0.809600 4.12941
0.882875 4.12815
0.952411 4.12710
1.00000 4.12644
1.01773 4.12620
1.07856 4.12544
1.19387 4.12417
1.28838 4.12326
1.36413 4.12260
1.48621 4.12164
1.50000 4.12154
1.61920 4.12072
1.76575 4.11983
1.90482 4.11909
2.00000 4.11863
2.03547 4.11846
2.15711 4.11793
2.38774 4.11703
2.57675 4.11639
2.72827 4.11592
2.75000 4.11586
2.97241 4.11524
3.23840 4.11460
3.41400 4.11421
3.50000 4.11404
3.69540 4.11366
4.00000 4.11312
4.42673 4.11247
4.77639 4.11201
5.00000 4.11174
5.05665 4.11167
5.50817 4.11118
6.00000 4.11071
7.50000 4.11051
9.00000 4.11030
10.0000 4.11029
15.0000 4.11021
20.0000 4.11014
27.5000 4.11004
35.0000 4.10993
42.3230 4.10982
50.0000 4.10975
69.0010 4.10958
75.0000 4.10955
100.000 4.10941
111.930 4.10934
150.000 4.10921
170.180 4.10914
200.000 4.10909
275.000 4.10895
350.000 4.10881
354.260 4.10880
500.000 4.10867
644.540 4.10854
750.000 4.10848
1000.00 4.10835
1093.60 4.10831
1500.00 4.10818
1721.70 4.10811
2000.00 4.10807
2750.00 4.10795
3500.00 4.10783
3656.30 4.10780
5000.00 4.10770
6000.00 4.10763
7000.00 4.60755
7133.30 4.76750
8000.00 5.80750
8400.00 4.50749
8900.00 5.60747
9200.00 4.80746
9600.00 6.30744
9900.00 4.50743
10000.0 4.50742
10500.0 4.50740
10900.0 4.60739
11300.0 5.10737
11900.0 4.80735
12409.0 4.63766
12500.0 4.60732
14000.0 5.70729
15100.0 4.30726
15200.0 5.40726
15800.0 3.70725
16300.0 4.80724
16800.0 3.50722
18000.0 4.90720
19500.0 3.70716
19930.0 3.71497
20000.0 3.71624
25000.0 3.80707
30000.0 4.10700
32500.0 4.25695
40000.0 4.70682
50000.0 4.55663
60000.0 4.40644
90000.0 4.20589
100000 3.00570
125000 2.30524
137000 1.20502
143000 2.90491
147000 2.60483
151000 4.00476
155000 6.00469
163000 3.00454
173000 1.80435
181000 4.20420
183000 4.70417
195000 2.10394
201000 2.70383
207000 4.70372
219000 2.20350
231000 1.90328
240000 2.60311
249000 2.60294
255000 4.60283
269000 1.70257
277000 3.90243
285000 2.20228
289000 3.20220
300000 2.40200
311000 1.60200
319000 2.50199
329000 1.90199
340000 2.00198
361000 3.80197
369000 5.80197
395000 2.10195
417000 2.10194
425000 1.80194
430000 3.90194
437000 7.20193
453000 2.10193
456000 4.00193
465000 2.10192
469000 5.50192
471000 4.50192
475000 6.60192
491000 2.80191
525000 2.00189
529000 3.90189
550000 1.50188
561000 5.60187
585000 3.00186
850000 2.20174
869000 4.40173
900000 2.30171
930000 4.30170
936000 3.30169
948000 6.50169
968000 3.60168
995000 2.90167
1.01000E+06 2.10166
1.01600E+06 2.10166
1.02200E+06 3.30165
1.03000E+06 3.30165
1.05600E+06 2.70164
1.06000E+06 2.90163
1.07600E+06 2.10163
1.08200E+06 3.50162
1.09200E+06 2.80162
1.11500E+06 1.80161
1.12700E+06 3.00160
1.15000E+06 5.00159
1.20000E+06 3.30157
1.31000E+06 3.19151
1.31001E+06 3.19151
1.50000E+06 3.05142
1.59000E+06 2.99868
1.65000E+06 2.96635
1.75000E+06 2.91048
2.00000E+06 2.92082
2.20000E+06 2.84909
2.25000E+06 2.83273
2.30600E+06 2.71921
2.35000E+06 2.63001
2.50000E+06 2.90094
2.65000E+06 3.28696
2.73000E+06 2.93283
2.75000E+06 2.83042
2.78000E+06 2.88164
2.84000E+06 3.04128
2.94000E+06 3.22901
2.95000E+06 3.25436
3.00000E+06 3.14363
3.05000E+06 3.03297
3.12500E+06 3.07949
3.20000E+06 3.07730
3.21000E+06 3.03868
3.30000E+06 2.71084
3.35000E+06 2.64120
3.46000E+06 2.51537
3.50000E+06 2.45652
3.60000E+06 2.67075
3.61000E+06 2.68218
3.72000E+06 2.84984
3.75000E+06 2.86570
3.82000E+06 2.82271
3.85000E+06 2.81601
4.10000E+06 2.76014
4.14000E+06 2.74358
4.22000E+06 2.73921
4.25000E+06 2.72949
4.35000E+06 3.03045
4.40000E+06 2.82538
4.42500E+06 2.79785
4.50000E+06 2.73560
4.54000E+06 2.72641
4.75000E+06 2.64117
4.80000E+06 2.71588
4.85000E+06 2.78302
5.00000E+06 2.55943
5.05000E+06 2.53853
5.50000E+06 2.44161
6.00000E+06 2.20170
6.30000E+06 2.36236
6.75000E+06 2.37834
7.10000E+06 2.24077
7.53772E+06 2.15905
8.00000E+06 2.07374
9.00000E+06 2.02576
1.00000E+07 1.99945
1.10000E+07 1.96091
1.20000E+07 1.93487
1.27110E+07 1.91281
1.30000E+07 1.90584
1.35000E+07 1.89382
1.40000E+07 1.88180
1.45000E+07 1.86454
1.50000E+07 1.85028
1.70000E+07 1.77025
1.80000E+07 1.74857
2.00000E+07 1.67020
2.00000E+07 1.93034
2.04021E+07 1.94170
2.10000E+07 1.95551
2.20000E+07 1.97230
2.30000E+07 1.98657
2.34672E+07 1.99282
2.40000E+07 1.99958
2.41132E+07 2.00096
2.43966E+07 2.00429
2.44017E+07 2.00435
2.49421E+07 2.01018
2.50000E+07 2.01076
2.60000E+07 2.01951
2.70000E+07 2.02534
2.71857E+07 2.02613
2.73308E+07 2.02670
2.76821E+07 2.02795
2.80000E+07 2.02895
2.90000E+07 2.03112
3.00000E+07 2.03210
3.00110E+07 2.03211
3.08317E+07 2.03217
3.10000E+07 2.03209
3.12129E+07 2.03194
3.20000E+07 2.03099
3.27856E+07 2.02947
3.30000E+07 2.02896
3.32251E+07 2.02839
3.40000E+07 2.02614
3.50000E+07 2.02266
3.52034E+07 2.02185
3.52516E+07 2.02164
3.53574E+07 2.02117
3.53816E+07 2.02106
3.60000E+07 2.01785
3.70000E+07 2.01123
3.71705E+07 2.00994
3.78842E+07 2.00415
3.80000E+07 2.00315
3.90000E+07 1.99393
3.98856E+07 1.98503
4.00000E+07 1.98384
4.10000E+07 1.97294
4.18794E+07 1.96270
4.19848E+07 1.96144
4.20000E+07 1.96125
4.26805E+07 1.95293
4.28456E+07 1.95088
4.29516E+07 1.94955
4.30000E+07 1.94894
4.32272E+07 1.94607
4.36003E+07 1.94131
4.40000E+07 1.93615
4.46396E+07 1.92777
4.46523E+07 1.92760
4.48654E+07 1.92478
4.50000E+07 1.92299
4.54770E+07 1.91660
4.60000E+07 1.90950
4.65436E+07 1.90201
4.67071E+07 1.89974
4.70000E+07 1.89563
4.80000E+07 1.88137
4.90000E+07 1.86671
4.97553E+07 1.85537
5.00000E+07 1.85165
5.10000E+07 1.83618
5.14326E+07 1.82934
5.20000E+07 1.82022
5.20430E+07 1.81952
5.23211E+07 1.81498
5.26868E+07 1.80894
5.30000E+07 1.80370
5.36319E+07 1.79295
5.40000E+07 1.78657
5.44476E+07 1.77869
5.50000E+07 1.76878
5.60000E+07 1.75068
5.64258E+07 1.74299
5.70000E+07 1.73263
5.71504E+07 1.72991
5.74407E+07 1.72468
5.80000E+07 1.71460
5.85342E+07 1.70497
5.90000E+07 1.69658
6.00000E+07 1.67855
6.10000E+07 1.66068
6.20000E+07 1.64314
6.22850E+07 1.63820
6.23093E+07 1.63778
6.30000E+07 1.62593
6.30374E+07 1.62529
6.40000E+07 1.60906
6.47570E+07 1.59652
6.50000E+07 1.59253
6.58974E+07 1.57809
6.59292E+07 1.57758
6.60000E+07 1.57646
6.70000E+07 1.56073
6.72452E+07 1.55690
6.80000E+07 1.54506
6.90000E+07 1.52915
7.00000E+07 1.51280
7.10000E+07 1.49597
7.20000E+07 1.47894
7.30000E+07 1.46194
7.40000E+07 1.44519
7.43034E+07 1.44019
7.50000E+07 1.42887
7.60000E+07 1.41302
7.64819E+07 1.40551
7.70000E+07 1.39751
7.80000E+07 1.38227
7.90000E+07 1.36722
7.95823E+07 1.35851
8.00000E+07 1.35228
8.10000E+07 1.33706
8.20000E+07 1.32149
8.30000E+07 1.30601
8.40000E+07 1.29098
8.50000E+07 1.27675
8.60000E+07 1.26352
8.70000E+07 1.25100
8.80000E+07 1.23879
8.90000E+07 1.22650
9.00000E+07 1.21380
9.10000E+07 1.20092
9.20000E+07 1.18827
9.30000E+07 1.17588
9.40000E+07 1.16376
9.50000E+07 1.15191
9.60000E+07 1.14030
9.70000E+07 1.12892
9.80000E+07 1.11777
9.90000E+07 1.10689
1.00000E+08 1.09630
1.02000E+08 1.07597
1.04000E+08 1.05663
1.06000E+08 1.03811
1.08000E+08 1.02025
1.10000E+08 1.00294
1.12000E+08 0.986132
1.14000E+08 0.969865
1.16000E+08 0.954133
1.18000E+08 0.938932
1.20000E+08 0.924253
1.22000E+08 0.910173
1.24000E+08 0.896710
1.26000E+08 0.883778
1.28000E+08 0.871300
1.30000E+08 0.859209
1.32000E+08 0.847562
1.34000E+08 0.836429
1.36000E+08 0.825766
1.38000E+08 0.815536
1.40000E+08 0.805705
1.42000E+08 0.796363
1.44000E+08 0.787566
1.46000E+08 0.779241
1.48000E+08 0.771320
1.50000E+08 0.763742