Ti-46(n,tot) ENDF/B-VII.1
Energy(eV) XS(b)
1.00000E-05 32.3599
1.25000E-05 29.2289
1.50000E-05 26.9177
2.00000E-05 23.6736
2.75000E-05 20.5867
3.50000E-05 18.5552
4.25000E-05 17.0887
5.00000E-05 15.9659
6.25000E-05 14.5657
7.50000E-05 13.5321
0.000100000 12.0813
0.000125000 11.0912
0.000150000 10.3603
0.000200000 9.33440
0.000275000 8.35826
0.000350000 7.71584
0.000425000 7.25207
0.000500000 6.89703
0.000625000 6.45424
0.000750000 6.12739
0.00100000 5.66859
0.00125000 5.35549
0.00150000 5.12437
0.00200000 4.79996
0.00275000 4.49127
0.00350000 4.28812
0.00425000 4.14146
0.00500000 4.02919
0.00625000 3.88917
0.00750000 3.78581
0.0100000 3.64072
0.0125000 3.54171
0.0150000 3.46863
0.0200000 3.36603
0.0253000 3.29249
0.0314750 3.23150
0.0376500 3.18621
0.0500000 3.12229
0.0625000 3.07801
0.0750000 3.04532
0.100000 2.99943
0.125000 2.96811
0.150000 2.94499
0.200000 2.91254
0.275000 2.88165
0.350000 2.86131
0.500000 2.83537
0.750000 2.81096
1.00000 2.79638
1.50000 2.77902
2.00000 2.76862
2.75000 2.75864
3.50000 2.75200
5.00000 2.74338
7.50000 2.73497
10.0000 2.72967
15.0000 2.72279
20.0000 2.71812
27.5000 2.71289
35.0000 2.70872
50.0000 2.70187
75.0000 2.69235
100.000 2.68384
150.000 2.66808
200.000 2.65312
275.000 2.63143
350.000 2.61029
500.000 2.56910
750.000 2.50285
1000.00 2.43902
1500.00 2.31752
2000.00 2.20312
2994.89 1.99262
3492.34 1.89422
3741.06 1.84638
3865.42 1.82278
3927.60 1.81112
3958.69 1.80559
3974.23 1.80393
3982.01 1.80732
3985.89 1.82469
3986.87 1.84203
3987.84 1.88760
3988.32 1.94474
3988.81 2.08221
3989.05 2.23693
3989.29 2.55803
3989.42 2.86392
3989.54 3.37571
3989.66 4.30044
3989.78 6.04106
3989.89 8.59046
3990.00 10.2660
3990.11 8.56399
3990.22 6.03852
3990.35 4.26741
3990.47 3.34628
3990.59 2.83703
3990.72 2.53907
3990.96 2.22435
3991.21 2.07370
3991.70 1.93964
3992.19 1.88393
3993.18 1.83933
3994.17 1.82219
3998.11 1.80398
4006.00 1.79784
4021.78 1.79369
4053.33 1.78748
4116.44 1.77562
4242.67 1.75214
4495.11 1.70563
5000.00 1.61390
6632.39 1.31664
7448.58 1.15452
7856.68 1.06462
8060.73 1.01626
8162.75 0.991020
8213.77 0.978146
8239.27 0.971784
8252.03 0.969141
8258.40 0.969855
8261.59 0.977513
8263.18 1.00554
8263.98 1.08757
8264.38 1.27052
8264.58 1.54840
8264.78 2.30404
8265.00 3.63513
8265.22 2.29594
8265.43 1.51653
8265.65 1.24461
8266.07 1.07320
8266.92 0.998761
8268.61 0.973476
8272.00 0.965467
8278.77 0.961837
8292.33 0.957839
8319.43 0.950599
8373.65 0.936097
8482.07 0.906260
8698.92 0.842634
9132.61 0.694578
9566.31 0.505231
9783.15 0.388327
10000.0 0.254043
10253.8 0.0868221
10317.2 0.0509322
10380.6 0.0239107
10412.4 0.0159248
10444.1 0.0133949
10475.8 0.0182259
10507.5 0.0329968
10523.4 0.0451743
10539.2 0.0612649
10570.9 0.107964
10602.7 0.180066
10634.4 0.287595
10666.1 0.445254
10697.8 0.675126
10729.5 1.01130
10761.3 1.50794
10793.0 2.25539
10824.7 3.40977
10856.4 5.25780
10888.1 8.36319
10919.9 13.9326
10935.7 18.4140
10951.6 24.8304
10967.4 34.2878
10983.3 48.6535
10999.2 71.0304
11015.0 105.968
11037.5 182.166
11060.0 243.932
11082.5 209.392
11105.0 140.403
11123.8 98.6482
11142.7 71.7395
11161.5 54.3417
11180.3 42.7175
11218.0 28.8129
11255.7 21.1728
11293.3 16.5145
11331.0 13.4499
11406.3 9.75521
11481.7 7.66385
11557.0 6.34530
11707.7 4.81121
11858.3 3.98311
11933.7 3.72015
12009.0 3.54553
12084.3 3.49305
12122.0 3.55245
12159.6 3.73604
12197.3 4.20650
12216.1 4.69006
12235.0 5.55203
12253.8 7.26637
12263.2 8.82017
12272.6 11.3490
12282.1 15.8499
12286.8 19.5192
12291.5 24.8920
12296.2 33.1704
12300.9 46.6121
12305.6 69.6788
12310.3 110.189
12315.2 175.106
12320.0 218.411
12324.9 174.862
12329.7 110.021
12335.1 65.1159
12340.6 41.6649
12346.0 28.8366
12351.4 21.2752
12356.9 16.5075
12362.3 13.3295
12373.1 9.50922
12384.0 7.39595
12394.9 6.10704
12416.6 4.67830
12438.3 3.94017
12460.0 3.50444
12481.7 3.22181
12503.5 3.02514
12546.9 2.76899
12590.3 2.60713
12677.2 2.40471
12764.1 2.27344
12850.9 2.17488
13024.7 2.02669
13198.4 1.91402
13372.2 1.82241
13459.0 1.78240
13545.9 1.74583
13632.8 1.71446
13676.2 1.70937
13687.1 1.71635
13697.9 1.74238
13703.4 1.78079
13708.8 1.88940
13711.5 2.03698
13712.9 2.18104
13714.2 2.43492
13715.6 2.95741
13716.3 3.45331
13716.9 4.29233
13717.6 5.94324
13718.0 7.42585
13718.3 9.83284
13718.6 14.1057
13718.8 17.5885
13719.0 22.7040
13719.2 30.5803
13719.3 43.3840
13719.5 65.3618
13719.7 101.021
13719.8 162.243
13720.0 199.889
13720.2 158.222
13720.4 100.526
13720.5 68.3986
13720.6 48.2089
13720.8 35.4263
13720.9 27.0503
13721.2 17.3218
13721.5 12.3349
13721.7 9.28779
13722.0 7.42509
13722.6 5.24624
13723.1 4.09960
13723.7 3.42472
13724.8 2.70477
13725.9 2.34981
13727.0 2.14945
13729.2 1.94357
13733.6 1.79089
13738.0 1.73581
13746.8 1.69451
13755.6 1.67831
13790.8 1.65410
13861.3 1.62800
13931.7 1.60513
14002.2 1.58349
14284.0 1.50554
14847.7 1.37919
15975.1 1.19451
17102.4 1.05738
17666.1 0.999148
17947.9 0.971929
18088.8 0.958750
18159.3 0.952332
18194.5 0.949498
18212.1 0.949585
18221.0 0.955657
18225.4 0.981574
18227.6 1.07464
18228.7 1.36384
18229.2 2.07593
18229.5 3.35067
18229.6 4.84771
18229.8 7.71424
18229.9 11.8211
18230.0 14.5075
18230.1 11.8409
18230.2 7.73900
18230.4 4.72697
18230.5 3.29477
18230.8 2.06386
18231.4 1.35451
18232.5 1.07286
18234.8 0.981449
18239.3 0.954787
18248.4 0.946827
18266.5 0.943269
18302.7 0.939478
18375.1 0.932851
18520.0 0.920061
18809.8 0.895457
18954.7 0.883767
19099.6 0.872969
19172.0 0.868466
19244.5 0.866093
19280.7 0.867537
19316.9 0.875906
19335.0 0.889072
19353.1 0.926623
19362.2 0.977549
19366.7 1.02729
19371.2 1.11592
19375.8 1.29969
19378.0 1.47736
19380.3 1.78887
19382.6 2.42122
19383.7 3.01142
19384.8 4.01560
19385.9 5.93340
19386.5 7.64108
19387.1 10.3102
19387.6 14.9994
19388.2 23.8578
19388.5 31.9006
19388.8 43.9840
19389.1 63.3986
19389.3 94.9440
19389.7 152.304
19390.0 188.899
19390.3 149.797
19390.7 94.0717
19391.0 60.8616
19391.3 41.1839
19391.6 29.3155
19391.9 21.8191
19392.5 13.4236
19393.1 9.20533
19393.7 6.74518
19394.3 5.23925
19395.4 3.52989
19396.6 2.64614
19397.8 2.13235
19400.2 1.59095
19402.6 1.32749
19405.0 1.18028
19409.7 1.03080
19414.5 0.960629
19419.2 0.922335
19428.8 0.884247
19447.8 0.856978
19466.8 0.847067
19543.0 0.834220
19695.3 0.821619
20000.0 0.798979
20308.7 0.777253
20463.0 0.767253
20617.4 0.758557
20771.7 0.753081
20848.9 0.753364
20926.1 0.758708
20964.7 0.765264
21003.2 0.776901
21041.8 0.798025
21080.4 0.838995
21099.7 0.874495
21119.0 0.929284
21138.3 1.01944
21157.6 1.18183
21167.2 1.31628
21176.9 1.51741
21186.5 1.83703
21196.2 2.38778
21205.8 3.45868
21210.6 4.41533
21215.5 5.95870
21220.3 8.67753
21225.1 14.0447
21227.5 18.8668
21229.9 26.5498
21232.3 39.3966
21234.7 61.2940
21237.4 97.8454
21240.0 122.337
21242.6 98.1207
21245.3 61.6631
21248.0 37.4949
21250.8 24.2965
21253.5 16.8339
21256.3 12.3337
21259.0 9.45053
21261.8 7.50648
21267.3 5.14672
21272.8 3.82581
21278.3 3.01660
21289.2 2.12004
21300.2 1.66023
21311.2 1.39378
21322.2 1.22527
21333.2 1.11199
21355.2 0.973279
21377.2 0.894411
21399.2 0.844956
21421.2 0.811659
21465.2 0.770318
21509.1 0.745913
21553.1 0.729717
21597.1 0.718000
21685.0 0.701545
21773.0 0.689766
21948.9 0.672030
22124.8 0.657563
22300.7 0.644502
22652.5 0.620325
23356.1 0.575365
23707.9 0.553800
23883.8 0.543161
23971.8 0.537864
24015.8 0.535354
24037.8 0.534986
24048.8 0.538973
24054.3 0.558110
24057.0 0.631280
24058.4 0.871938
24059.1 1.52288
24059.4 2.76302
24059.6 4.34587
24059.7 7.97105
24059.9 12.3230
24060.0 15.4698
24060.1 12.3960
24060.3 8.03144
24060.4 4.85354
24060.5 3.26463
24060.8 1.83228
24061.4 1.02262
24062.6 0.687620
24064.9 0.577843
24069.5 0.545339
24078.7 0.535623
24097.1 0.531865
24133.8 0.528857
24207.4 0.524226
24354.6 0.515473
24648.9 0.498321
25237.6 0.464751
26415.0 0.399970
27592.3 0.337954
28181.0 0.307969
28475.3 0.293329
28622.5 0.286316
28696.1 0.283434
28732.9 0.283685
28751.3 0.289003
28760.5 0.308788
28765.1 0.376036
28767.4 0.590717
28768.5 1.18191
28769.1 2.39885
28769.4 4.15055
28769.6 8.25559
28769.8 12.9619
28770.0 16.0328
28770.2 12.8018
28770.4 8.05551
28770.5 5.28915
28770.7 3.64458
28771.0 2.02213
28771.6 0.960690
28772.9 0.489874
28775.5 0.332999
28780.6 0.289332
28790.8 0.278667
28811.2 0.275855
28852.1 0.273815
28933.8 0.270015
29097.2 0.262196
29424.0 0.246501
30077.6 0.215719
31384.9 0.157879
32692.2 0.108629
33345.8 0.0910757
33672.6 0.0866739
33836.0 0.0875481
33917.7 0.0911692
33958.6 0.0976579
33979.0 0.110548
33989.2 0.143297
33994.3 0.238301
33996.9 0.503527
33998.1 1.12140
33998.8 2.15317
33999.1 3.30522
33999.4 5.37896
33999.7 8.44468
34000.0 10.3092
34000.3 8.17198
34000.6 5.02685
34001.0 2.68546
34001.4 1.59737
34002.1 0.737077
34003.7 0.301536
34006.7 0.146020
34012.9 0.105857
34025.1 0.102945
34049.7 0.125627
34062.0 0.156203
34074.2 0.237886
34080.4 0.345122
34083.5 0.447582
34086.5 0.626133
34089.6 0.980513
34091.1 1.30731
34092.7 1.84780
34094.2 2.85213
34095.0 3.70642
34095.7 4.99531
34096.5 7.12195
34097.3 10.8181
34098.0 18.0608
34098.4 24.1259
34098.8 32.8258
34099.4 52.5517
34100.0 65.3362
34100.6 52.0131
34101.2 32.5857
34101.8 20.9117
34102.3 14.1277
34102.8 10.0210
34103.4 7.41935
34104.5 4.47803
34105.6 2.99483
34106.6 2.13903
34107.7 1.61211
34109.9 1.01970
34112.1 0.712034
34114.2 0.534024
34118.5 0.345894
34127.2 0.203216
34135.9 0.151381
34153.2 0.114115
34170.5 0.101482
34205.2 0.0935063
34239.8 0.0918415
34378.4 0.0971432
34517.0 0.110738
34655.5 0.136380
34794.1 0.189258
34863.4 0.239305
34932.7 0.326015
34967.3 0.395993
35002.0 0.499109
35036.6 0.661380
35071.3 0.940923
35088.6 1.16520
35105.9 1.49293
35123.2 2.00141
35140.6 2.85665
35157.9 4.47133
35166.5 5.88233
35175.2 8.11539
35183.9 11.9466
35192.5 19.2834
35196.9 25.6783
35201.2 35.5773
35205.5 51.5256
35209.8 77.5134
35214.9 122.814
35220.0 151.958
35225.1 120.154
35230.2 74.2740
35233.9 51.4768
35237.6 36.6308
35241.3 26.9355
35245.0 20.4441
35252.4 12.7115
35259.8 8.55252
35267.2 6.09292
35274.7 4.53453
35289.5 2.75675
35304.3 1.82767
35319.1 1.28684
35333.9 0.946473
35348.8 0.719621
35378.4 0.447529
35408.1 0.298592
35437.7 0.209470
35467.4 0.152649
35497.0 0.114639
35526.7 0.0882854
35585.9 0.0558103
35645.2 0.0380727
35704.5 0.0279949
35823.1 0.0191693
35941.7 0.0176162
36060.3 0.0196677
36178.9 0.0240079
36416.1 0.0380801
36653.2 0.0596601
36890.4 0.0911230
37127.6 0.136990
37364.8 0.205143
37602.0 0.309879
37839.1 0.479267
38076.3 0.774702
38194.9 1.01092
38313.5 1.35248
38432.1 1.87108
38550.7 2.71051
38669.2 4.19247
38728.5 5.39313
38787.8 7.14561
38847.1 9.82265
38906.4 14.1276
38965.7 21.4188
39025.0 34.0379
39087.5 54.4328
39150.0 67.9038
39212.5 54.2710
39275.0 33.9013
39321.8 23.4426
39368.6 16.6568
39415.4 12.2397
39462.2 9.28320
39555.8 5.77321
39649.4 3.88554
39742.9 2.76833
39836.5 2.05776
40023.7 1.24562
40210.9 0.822722
40398.1 0.580818
40585.2 0.435723
40772.4 0.348967
40959.6 0.301884
41146.8 0.286025
41333.9 0.299793
41521.1 0.348939
41708.3 0.453207
41895.5 0.677595
41989.0 0.907229
42035.8 1.09549
42082.6 1.38793
42129.4 1.90531
42152.8 2.34460
42176.2 3.03704
42199.6 4.24793
42211.3 5.23584
42223.0 6.70081
42234.7 9.00852
42246.4 12.9104
42258.1 20.0565
42269.8 33.8060
42279.9 52.7986
42290.0 64.8094
42300.1 51.2318
42310.2 31.9280
42317.9 22.0406
42325.7 15.7717
42333.4 11.7775
42341.1 9.15579
42356.6 6.13009
42372.0 4.57686
42387.5 3.71257
42402.9 3.21147
42433.9 2.76059
42464.8 2.68706
42495.7 2.82933
42557.5 3.63182
42619.3 5.38023
42650.2 6.91382
42681.2 9.28970
42712.1 13.2112
42743.0 20.2498
42758.4 25.9848
42773.9 34.2849
42789.4 46.5742
42804.8 64.7093
42827.4 102.400
42850.0 126.399
42872.6 99.5725
42895.2 61.2978
42919.9 35.6147
42944.6 22.1430
42969.3 14.7575
42993.9 10.4092
43018.6 7.67747
43043.3 5.86664
43092.7 3.71293
43142.0 2.54457
43191.4 1.85002
43240.7 1.40935
43290.1 1.11651
43388.8 0.774498
43487.6 0.604312
43586.3 0.523855
43685.0 0.498811
43882.5 0.573390
43981.2 0.684400
44079.9 0.885634
44178.6 1.28136
44228.0 1.63894
44277.4 2.22572
44326.7 3.28870
44351.4 4.17440
44376.1 5.50464
44400.8 7.61548
44425.4 11.1936
44450.1 17.7135
44474.8 30.1274
44497.4 48.5976
44520.0 61.4310
44542.6 49.7945
44565.2 31.6939
44587.0 20.2954
44608.8 13.7426
44630.6 9.88244
44652.4 7.48679
44696.0 4.84669
44739.6 3.52736
44783.2 2.78762
44826.7 2.33956
44913.9 1.86649
45001.1 1.65951
45088.3 1.57691
45262.6 1.59201
45611.3 1.96409
45960.1 2.65407
46308.8 3.74013
46657.5 5.50119
46831.8 6.86394
47006.2 8.97870
47093.4 10.7291
47180.6 13.8585
47224.1 16.7847
47267.7 22.1745
47289.5 26.8831
47311.3 34.3386
47333.1 46.8900
47354.9 68.6798
47377.5 103.415
47400.0 126.587
47422.6 103.712
47445.2 69.6486
47460.3 53.9304
47475.3 43.3457
47505.4 31.4468
47535.5 25.7545
47565.7 22.8585
47625.9 20.6395
47686.1 20.4273
47806.6 22.2390
47927.0 25.4765
48333.5 41.9963
48740.0 54.4879
49047.4 48.8598
49201.2 43.1214
49239.6 41.9375
49278.0 41.4889
49297.2 42.1140
49316.5 44.5129
49326.1 47.3600
49335.7 52.8030
49345.3 63.9840
49350.1 73.7822
49354.9 88.1889
49362.4 121.320
49370.0 145.133
49377.6 125.105
49385.1 92.5476
49390.4 76.4020
49395.6 65.3790
49406.1 52.5894
49416.6 45.9398
49427.1 42.0321
49448.1 37.6801
49469.1 35.2250
49511.0 32.2177
49553.0 30.1299
49664.8 25.9620
49776.5 22.6728
50000.0 17.5889
50354.1 12.2041
50708.1 8.80753
51062.2 6.56093
51416.2 5.00700
52124.3 3.05749
52832.4 1.92299
53540.6 1.20323
54248.7 0.722931
54956.8 0.401951
55310.8 0.298992
55399.4 0.288066
55487.9 0.304217
55532.1 0.347316
55554.3 0.395316
55576.4 0.485841
55598.5 0.679123
55609.6 0.866875
55620.6 1.19529
55631.7 1.84608
55637.2 2.43847
55642.8 3.41282
55648.3 5.17363
55651.1 6.63729
55653.8 8.81577
55656.6 12.2601
55659.4 18.0201
55662.1 28.4153
55664.9 47.7813
55667.4 76.3991
55670.0 95.5382
55672.6 76.4610
55675.1 47.9209
55677.1 33.1961
55679.0 23.7099
55680.9 17.5382
55682.8 13.4060
55686.7 8.48835
55690.5 5.84774
55694.4 4.27759
55698.2 3.27829
55705.9 2.12659
55713.6 1.51437
55721.3 1.15133
55736.6 0.760145
55752.0 0.563943
55767.4 0.451161
55798.1 0.331462
55828.9 0.270960
55859.6 0.234961
55921.1 0.193639
56044.1 0.153127
56167.1 0.130944
56413.0 0.108097
56536.0 0.104110
56597.5 0.104148
56628.3 0.106777
56643.6 0.117860
56651.3 0.158996
56655.2 0.286254
56657.1 0.585350
56658.0 1.06539
56659.0 2.46672
56660.0 4.90500
56661.0 2.54327
56661.6 1.44000
56662.3 0.913401
56663.5 0.481742
56666.1 0.245115
56671.1 0.150767
56681.2 0.119836
56701.4 0.110871
56741.8 0.109552
56822.5 0.113385
56984.0 0.128814
57307.0 0.186986
57629.9 0.286877
57952.9 0.439106
58275.9 0.662086
58598.9 0.999658
58760.3 1.25716
58921.8 1.69147
59002.6 2.11228
59043.0 2.46413
59083.3 3.02725
59123.7 4.05436
59143.9 4.93730
59164.1 6.32131
59184.3 8.67602
59204.4 13.1299
59214.5 16.9676
59224.6 22.8245
59234.7 32.0923
59244.8 46.8844
59257.4 74.3940
59270.0 93.0045
59282.6 74.9673
59295.2 47.6671
59309.0 28.9393
59322.8 19.0150
59336.7 13.5266
59350.5 10.2763
59364.3 8.22214
59378.1 6.85639
59405.7 5.22833
59433.4 4.34971
59461.0 3.83624
59516.2 3.32394
59626.7 3.07055
59737.3 3.15652
60179.3 4.40663
60621.4 6.52443
60842.4 7.97400
60952.9 8.88815
60980.5 9.19616
61008.2 9.65820
61022.0 10.0737
61028.9 10.4068
61035.8 10.9180
61042.7 11.7971
61049.6 13.5470
61053.1 15.1700
61056.5 17.8501
61060.0 22.5940
61063.4 31.3122
61066.7 44.5642
61070.0 53.6141
61073.3 45.1107
61076.6 32.0423
61079.5 24.3785
61082.4 19.7735
61085.3 16.9694
61088.2 15.1889
61094.1 13.1935
61099.9 12.1896
61105.7 11.6317
61111.5 11.3012
61123.2 10.9721
61146.4 10.8231
61169.7 10.8968
61262.8 11.6588
61449.0 13.6830
61886.8 19.8756
62324.5 27.8688
63200.0 42.3695
63637.8 43.4328
64075.5 40.0275
64951.0 29.1025
65723.2 21.3529
66495.4 16.1352
67267.6 12.6514
67653.6 11.3597
67750.2 11.0847
67846.7 10.8533
67895.0 10.7836
67919.1 10.7807
67943.2 10.8272
67967.3 10.9869
67979.4 11.1620
67991.5 11.4750
68003.5 12.0780
68009.6 12.5971
68015.6 13.3932
68021.6 14.6862
68027.7 16.9298
68033.7 21.1501
68039.7 29.5155
68044.9 41.2316
68050.0 49.1420
68055.1 41.4744
68060.3 29.8343
68063.7 24.4024
68067.1 20.6836
68073.9 16.3800
68080.7 14.1841
68087.5 12.9466
68094.3 12.1841
68101.0 11.6825
68114.6 11.0790
68128.2 10.7367
68141.8 10.5178
68169.0 10.2490
68196.1 10.0811
68223.3 9.95745
68277.6 9.76882
68386.3 9.47987
68495.0 9.23963
68603.7 9.03780
68658.0 8.95902
68712.4 8.90986
68766.7 8.92693
68793.9 8.99232
68821.1 9.14484
68848.2 9.49699
68861.8 9.84097
68875.4 10.4292
68889.0 11.5370
68895.8 12.4871
68902.6 13.9522
68909.4 16.3653
68916.2 20.6688
68923.0 29.1546
68926.4 36.5027
68929.7 47.2053
68934.9 70.1828
68940.0 85.1803
68945.1 69.3925
68950.3 46.2131
68954.0 34.7510
68957.7 27.2404
68961.3 22.2941
68965.0 18.9509
68972.4 14.9423
68979.8 12.7634
68987.2 11.4628
68994.6 10.6282
69009.3 9.65863
69024.1 9.13510
69038.8 8.81713
69068.4 8.45569
69097.9 8.25340
69127.4 8.11861
69186.5 7.93423
69245.5 7.79758
69304.5 7.68124
69422.6 7.47620
69658.8 7.11526
69895.0 6.79046
70367.4 6.22034
70485.5 6.09713
70603.6 5.99587
70662.6 5.97151
70692.1 5.97892
70721.7 6.01768
70751.2 6.13126
70765.9 6.25299
70780.7 6.47237
70795.5 6.90520
70802.8 7.28953
70810.2 7.89827
70817.6 8.93109
70825.0 10.8500
70828.7 12.4594
70832.4 14.8487
70836.1 18.4882
70839.7 24.0407
70844.9 35.3416
70850.0 43.1297
70855.1 35.9411
70860.3 24.7869
70864.5 18.5384
70868.7 14.6506
70873.0 12.1978
70877.2 10.5996
70885.7 8.74158
70894.1 7.75913
70902.6 7.17888
70911.1 6.80817
70928.0 6.37511
70944.9 6.13730
70961.9 5.98925
70995.7 5.81383
71029.6 5.70939
71063.5 5.63581
71131.2 5.52894
71266.6 5.37314
71402.1 5.24350
71943.9 4.80536
73027.5 4.11346
74111.2 3.61309
74382.1 3.53780
74653.0 3.53448
74788.5 3.61538
74856.2 3.71321
74923.9 3.89771
74991.6 4.27805
75025.5 4.63081
75059.4 5.21848
75093.2 6.30129
75110.2 7.21906
75127.1 8.62418
75144.0 10.9212
75160.9 15.0055
75177.9 23.0475
75186.3 30.0088
75194.8 40.1736
75207.4 61.5092
75220.0 74.9107
75232.6 59.4776
75245.2 37.6505
75258.9 23.1119
75272.5 15.4677
75286.2 11.2728
75299.9 8.80182
75313.6 7.24884
75327.2 6.21864
75354.6 4.99095
75381.9 4.32041
75409.2 3.91685
75463.9 3.47697
75518.6 3.25355
75573.3 3.12246
75682.6 2.97583
75792.0 2.89218
75901.3 2.83380
76120.0 2.74919
76338.7 2.68882
76557.4 2.66425
76666.8 2.69271
76721.4 2.73685
76776.1 2.82794
76830.8 3.02804
76858.1 3.21988
76885.5 3.54435
76912.8 4.14518
76926.5 4.65121
76940.1 5.41492
76953.8 6.63021
76967.5 8.69185
76981.1 12.4426
76994.8 19.5493
77007.4 30.1716
77020.0 37.5598
77032.6 30.8781
77045.2 20.4370
77055.0 14.8701
77064.7 11.2960
77074.5 8.98774
77084.3 7.44975
77103.8 5.62761
77123.3 4.64595
77142.8 4.06061
77162.4 3.68450
77201.4 3.24519
77240.5 3.00647
77279.5 2.86101
77357.6 2.69777
77435.7 2.61193
77513.8 2.56235
77670.0 2.52368
77826.2 2.55939
77904.3 2.62448
77982.4 2.75672
78060.5 3.03967
78099.6 3.30731
78138.6 3.75996
78177.7 4.61059
78197.2 5.34660
78216.7 6.49613
78236.2 8.43178
78255.8 12.0264
78265.5 15.0664
78275.3 19.6244
78285.0 26.6789
78294.8 37.6421
78307.4 58.1703
78320.0 71.1588
78332.6 56.4438
78345.2 35.5002
78354.6 24.9348
78364.1 18.1605
78373.5 13.7905
78382.9 10.8872
78401.8 7.47187
78420.7 5.65763
78439.5 4.59413
78458.4 3.92353
78496.1 3.16213
78533.9 2.76519
78571.6 2.53290
78647.0 2.28472
78722.5 2.15931
78798.0 2.08453
78948.9 1.99692
79250.7 1.90247
79552.5 1.84205
79854.3 1.80253
80156.2 1.79812
80307.1 1.82821
80382.5 1.86266
80458.0 1.92384
80533.5 2.04160
80571.2 2.14597
80608.9 2.31591
80646.6 2.62918
80665.5 2.90260
80684.4 3.34347
80703.2 4.14127
80712.7 4.81770
80722.1 5.86746
80731.5 7.63878
80741.0 10.9956
80745.7 13.9233
80750.4 18.4714
80755.1 25.9040
80759.8 38.1700
80764.9 57.4363
80770.0 68.0204
80775.1 52.0584
80780.2 31.4750
80783.4 22.8749
80786.5 17.0167
80792.8 10.2387
80799.1 6.83932
80805.4 4.97587
80811.6 3.86999
80817.9 3.17525
80830.5 2.40234
80843.1 2.02031
80855.6 1.81419
80880.8 1.62722
80905.9 1.56270
80931.1 1.54545
80981.4 1.56508
81031.7 1.61509
81081.9 1.68422
81182.5 1.89584
81283.1 2.30699
81333.4 2.68083
81383.7 3.29889
81434.0 4.43306
81459.1 5.39667
81484.3 6.88294
81509.4 9.36180
81534.6 13.9715
81547.1 17.9273
81559.7 24.0094
81572.3 33.8043
81584.8 49.6670
81597.4 70.7428
81603.7 77.9477
81610.0 77.1260
81622.6 52.5515
81635.2 27.5524
81642.6 18.6685
81650.1 13.2736
81657.6 10.3847
81665.0 9.42057
81672.5 10.1943
81679.9 12.8988
81687.4 18.1302
81694.8 26.8931
81707.4 52.0922
81720.0 77.6383
81726.3 79.0591
81732.6 72.2757
81745.2 51.4636
81760.6 32.7470
81776.1 22.2798
81791.6 16.2505
81807.0 12.5228
81828.2 9.36087
81849.3 7.39827
81891.6 5.17283
81934.0 3.99270
81976.3 3.28501
82060.9 2.50376
82145.5 2.09699
82230.2 1.85352
82314.8 1.69311
82484.1 1.49468
82822.6 1.29018
83161.1 1.17220
83838.1 1.01188
84007.4 0.979374
84176.7 0.951271
84261.3 0.942159
84345.9 0.947079
84388.2 0.969083
84409.4 0.995357
84430.6 1.04665
84451.7 1.15929
84462.3 1.27055
84472.9 1.46760
84483.5 1.86223
84488.7 2.22476
84494.0 2.82498
84499.3 3.91785
84502.0 4.83203
84504.6 6.19961
84507.3 8.37594
84509.9 12.0441
84512.5 18.7017
84515.2 31.3042
84517.6 49.8088
84520.0 62.3533
84522.4 50.3053
84524.8 31.9269
84527.3 19.8311
84529.8 13.1433
84532.3 9.32531
84534.7 7.01357
84537.2 5.51677
84539.7 4.50638
84544.6 3.26789
84549.6 2.57125
84554.5 2.14177
84564.4 1.66176
84574.3 1.41292
84584.2 1.26713
84604.0 1.11030
84623.9 1.03077
84643.7 0.983964
84683.3 0.931748
84762.5 0.883463
84841.7 0.857134
85000.1 0.821518
85158.6 0.793256
85792.3 0.704610
86109.2 0.676075
86426.0 0.675364
86584.5 0.703350
86663.7 0.734950
86742.9 0.790990
86822.1 0.898707
86861.7 0.993874
86901.3 1.14822
86940.9 1.43111
86960.7 1.67688
86980.5 2.07193
87000.4 2.78514
87010.3 3.38965
87020.2 4.32891
87030.1 5.91923
87040.0 8.95637
87044.9 11.6279
87049.9 15.8336
87054.8 22.8019
87059.8 34.5603
87064.9 52.3611
87070.0 62.0022
87075.1 47.0499
87080.3 27.9792
87085.2 16.6428
87090.2 10.4652
87095.2 6.98753
87100.2 4.91599
87105.2 3.61334
87110.1 2.75545
87120.1 1.75407
87130.1 1.23170
87140.0 0.936646
87159.9 0.653081
87179.9 0.544852
87199.8 0.508722
87239.6 0.527685
87279.5 0.610290
87319.3 0.756209
87339.2 0.871130
87359.1 1.05235
87369.1 1.20351
87379.1 1.47515
87384.0 1.73707
87389.0 2.27096
87391.5 2.82872
87394.0 3.99834
87395.3 5.20224
87396.5 7.52514
87397.1 9.67922
87397.7 13.1878
87398.4 19.4522
87399.0 31.1418
87399.5 45.3669
87400.0 51.6428
87400.5 37.6736
87401.0 21.5318
87401.4 13.8581
87401.8 9.21858
87402.6 4.60242
87403.4 2.65376
87404.1 1.73411
87405.7 0.982205
87407.2 0.746824
87413.5 0.711245
87425.9 0.975345
87450.7 1.44392
87475.6 2.01436
87500.4 2.87800
87525.3 4.35604
87550.1 7.20943
87562.5 9.71286
87575.0 13.5956
87587.4 19.8559
87599.8 30.0651
87614.9 48.9031
87630.0 62.2103
87645.1 50.6707
87660.2 32.2946
87671.4 22.8037
87682.6 16.5660
87693.7 12.4567
87704.9 9.67551
87727.2 6.32817
87749.6 4.49535
87771.9 3.39226
87794.3 2.67872
87838.9 1.84197
87883.6 1.38685
87928.3 1.11036
88017.7 0.801777
88107.0 0.638720
88196.4 0.539340
88375.1 0.423701
88732.6 0.309570
89090.0 0.246427
89447.5 0.209671
89804.9 0.215814
89983.6 0.267130
90073.0 0.327639
90162.4 0.442592
90251.7 0.684556
90296.4 0.913977
90341.1 1.30428
90385.8 2.04288
90408.1 2.68449
90430.4 3.68881
90452.8 5.37808
90475.1 8.50169
90486.3 11.1205
90497.5 15.0162
90508.6 20.9731
90519.8 30.1029
90534.9 48.0397
90550.0 59.8586
90565.1 47.6745
90580.2 29.6594
90589.7 21.6554
90599.3 16.1055
90618.4 9.57816
90637.4 6.21211
90656.5 4.30700
90675.6 3.13835
90694.7 2.37543
90732.8 1.47593
90771.0 0.986724
90809.1 0.690551
90847.3 0.496189
90885.4 0.360340
90961.7 0.184729
90999.9 0.127503
91038.0 0.0906752
91076.2 0.0936732
91095.3 0.131989
91114.3 0.232537
91123.9 0.330094
91133.4 0.487639
91143.0 0.751502
91152.5 1.21839
91157.3 1.59007
91162.0 2.11829
91166.8 2.89403
91171.6 4.08001
91176.3 5.98433
91181.1 9.22583
91185.9 15.0979
91190.6 26.0866
91195.3 43.9756
91200.0 57.7722
91204.7 48.5032
91209.4 31.7962
91212.7 23.2506
91216.0 17.4022
91219.2 13.4170
91222.5 10.6426
91229.1 7.19315
91235.7 5.23331
91242.3 4.01789
91248.9 3.21125
91262.0 2.23514
91275.2 1.68333
91288.3 1.33683
91314.7 0.934863
91341.0 0.713379
91367.3 0.574813
91419.9 0.412085
91472.6 0.319683
91525.2 0.259934
91630.5 0.186814
91735.8 0.143618
91841.0 0.115365
92051.6 0.0824644
92262.1 0.0678786
92472.7 0.0672922
92577.9 0.0746235
92683.2 0.0971107
92735.9 0.127761
92762.2 0.157977
92788.5 0.212513
92814.8 0.326628
92828.0 0.437003
92841.1 0.630551
92854.3 1.01514
92860.9 1.36657
92867.4 1.94580
92874.0 2.99383
92877.3 3.86295
92880.6 5.15972
92883.9 7.19717
92887.2 10.6011
92890.5 16.6740
92893.8 27.8627
92896.9 44.8617
92900.0 56.3943
92903.1 45.3985
92906.3 28.6093
92908.9 18.9759
92911.6 13.0999
92914.3 9.44555
92916.9 7.09790
92922.2 4.40470
92927.6 3.00489
92932.9 2.18976
92938.2 1.67646
92948.9 1.09231
92959.5 0.784796
92970.2 0.603557
92991.5 0.409268
93012.8 0.312967
93034.1 0.258721
93076.7 0.204163
93161.9 0.169739
93247.1 0.166190
93417.6 0.189085
93588.0 0.237060
93758.5 0.322023
93843.7 0.394216
93928.9 0.512689
94014.1 0.741493
94056.8 0.952384
94099.4 1.30942
94142.0 1.98805
94163.3 2.58169
94184.6 3.51555
94205.9 5.09425
94227.2 8.01679
94237.9 10.4643
94248.5 14.0861
94259.2 19.5857
94269.8 27.9515
94284.9 45.4231
94300.0 57.8488
94315.1 47.2696
94330.2 30.2833
94343.0 20.5109
94355.7 14.4603
94368.5 10.6715
94381.3 8.20989
94406.8 5.36454
94432.3 3.86857
94457.9 2.99380
94483.4 2.44122
94534.4 1.81374
94636.6 1.30786
94738.7 1.13683
94942.9 1.08662
95147.2 1.17583
95555.6 1.53659
95964.1 2.08807
96781.1 3.90066
97598.0 7.17609
98522.4 13.6002
98984.6 17.9007
99215.8 20.1641
99331.3 21.3045
99389.1 21.9573
99403.5 22.1956
99418.0 22.5985
99425.2 23.0003
99428.8 23.3382
99432.4 23.8729
99436.0 24.8160
99437.8 25.5946
99439.6 26.7511
99441.4 28.5935
99443.2 31.7076
99445.1 37.4672
99446.9 48.5316
99448.4 64.2035
99450.0 74.4727
99451.6 63.8961
99453.2 48.3026
99454.2 40.9098
99455.3 35.9264
99457.4 30.2685
99459.6 27.4609
99461.7 25.9217
99463.8 24.9957
99466.0 24.4076
99470.2 23.7381
99474.5 23.3977
99478.8 23.2119
99487.3 23.0475
99504.4 23.0132
99521.5 23.0953
99589.9 23.6184
99726.6 24.7072
100000 26.5181
100745 28.0591
101117 27.1529
101304 26.5270
101350 26.4344
101397 26.5135
101420 26.7644
101432 27.0353
101443 27.5094
101455 28.4164
101467 30.3417
101472 32.1937
101478 35.3505
101484 41.1402
101490 52.2353
101495 67.8202
101500 77.8406
101505 66.9605
101510 51.1255
101514 43.6074
101517 38.5647
101524 32.8637
101531 30.0350
101538 28.4839
101545 27.5243
101552 26.9043
101566 26.1523
101580 25.7210
101594 25.4378
101622 25.0697
101677 24.6096
101733 24.2547
101955 22.9984
102400 20.6066
103196 16.8699
103991 14.0033
104787 11.9563
104986 11.5966
105184 11.3672
105284 11.3668
105334 11.4344
105383 11.5951
105433 11.9502
105458 12.2805
105483 12.8179
105508 13.7803
105520 14.5696
105532 15.7486
105545 17.6438
105557 20.8986
105564 23.4726
105570 27.1150
105576 32.3642
105582 39.8642
105591 54.2910
105600 60.9494
105609 47.3367
105618 31.3830
105624 24.5068
105630 20.0720
105641 15.1509
105653 12.8274
105665 11.6229
105676 10.9338
105688 10.5186
105711 10.0846
105735 9.88659
105758 9.78954
105805 9.71634
105851 9.70830
105898 9.73150
105992 9.86219
106085 10.1885
106132 10.5068
106178 11.0414
106225 12.0146
106248 12.8263
106272 14.0398
106295 15.9835
106318 19.3193
106342 25.6212
106353 30.8990
106365 38.2904
106383 53.0605
106400 60.3270
106418 46.9682
106435 30.6397
106456 19.4444
106478 14.2519
106499 11.6821
106521 10.2974
106563 9.02427
106606 8.59191
106649 8.61929
106692 9.28597
106713 10.1981
106735 12.1712
106745 14.0375
106756 17.1190
106767 22.4716
106777 31.8748
106789 48.0137
106800 59.8868
106811 50.7723
106823 35.4847
106831 27.1883
106840 21.8084
106849 18.2301
106857 15.8369
106875 12.9274
106892 11.3269
106909 10.3441
106926 9.70160
106961 8.92524
106995 8.48614
107030 8.21042
107099 7.90588
107168 7.81670
107202 7.87224
107237 8.05654
107271 8.51619
107289 8.96526
107306 9.70420
107323 11.0068
107340 13.4654
107358 18.6733
107366 23.3888
107375 30.5655
107387 46.3168
107400 58.2983
107413 49.8088
107425 34.9087
107439 24.4470
107452 18.6062
107465 15.2362
107479 13.1732
107505 10.8746
107532 9.69081
107559 8.99233
107586 8.53823
107639 7.98637
107746 7.43940
107853 7.15022
107960 6.97202
108066 6.91787
108120 7.01497
108146 7.15129
108173 7.42067
108200 7.98296
108213 8.49736
108227 9.31446
108240 10.7167
108253 13.2869
108267 18.5752
108273 23.2762
108280 30.1709
108290 45.6432
108300 56.8482
108310 47.9985
108320 33.1845
108328 24.8411
108337 19.5843
108345 16.2015
108353 13.9499
108369 11.2764
108385 9.82291
108401 8.94128
108418 8.36969
108450 7.68385
108483 7.29287
108515 7.04251
108580 6.73520
108709 6.41397
108839 6.23709
108969 6.15831
109034 6.18020
109099 6.29254
109164 6.61313
109196 6.94548
109228 7.51955
109261 8.57703
109293 10.6956
109309 12.5801
109326 15.5138
109342 20.2324
109358 27.8920
109379 43.3598
109400 55.4848
109421 47.5101
109442 33.0481
109458 25.0935
109474 19.8889
109491 16.4347
109507 14.1032
109539 11.2603
109571 9.67777
109603 8.69850
109636 8.04731
109700 7.24946
109765 6.78199
109829 6.47442
109958 6.08431
110217 5.65079
110475 5.37536
110991 4.97179
111508 4.63745
112024 4.31676
112540 3.95779
112799 3.72794
112928 3.58448
113057 3.40813
113186 3.18052
113251 3.04065
113315 2.88529
113380 2.74132
113412 2.71018
113444 2.77432
113476 3.10323
113493 3.50765
113509 4.25372
113525 5.68937
113541 8.56971
113549 11.0895
113557 14.8221
113565 20.5803
113573 29.2345
113573 29.3661
113574 29.7648
113574 30.0337
113574 30.5793
113575 31.7016
113577 34.2255
113580 39.6666
113587 52.5684
113600 74.4381
113613 68.2434
113627 49.0648
113636 38.7442
113645 31.2413
113663 22.0024
113681 16.9110
113699 13.8418
113717 11.8351
113734 10.4565
113770 8.70305
113806 7.64909
113842 6.95604
113914 6.10352
113985 5.59975
114057 5.26692
114200 4.85179
114343 4.61339
114415 4.54474
114487 4.52352
114558 4.59843
114594 4.71650
114630 4.95596
114666 5.46485
114684 5.93070
114702 6.67974
114720 7.96137
114738 10.3419
114755 15.2368
114764 19.6375
114773 26.1638
114787 40.6561
114800 51.2721
114813 43.0984
114827 29.2669
114835 22.9433
114844 18.4632
114860 13.0560
114877 10.1765
114894 8.49807
114911 7.44044
114928 6.73104
114961 5.86356
114995 5.36715
115028 5.05143
115096 4.67648
115163 4.46035
115230 4.31698
115364 4.13062
115499 4.00619
115633 3.91121
115902 3.76474
116170 3.64994
116439 3.56313
116574 3.54497
116641 3.55514
116708 3.59748
116775 3.72004
116809 3.85320
116842 4.09711
116876 4.58786
116893 5.03029
116909 5.73910
116926 6.95603
116943 9.24455
116951 11.1806
116960 14.0729
116968 18.5065
116977 25.2198
116988 39.3850
117000 49.5495
117012 41.2128
117024 27.6622
117034 19.2531
117045 14.2332
117056 11.1852
117067 9.24474
117088 7.04212
117110 5.89658
117132 5.22604
117153 4.79836
117196 4.29930
117240 4.02524
117283 3.85486
117369 3.65528
117456 3.54016
117542 3.46259
117715 3.35805
118060 3.22450
118406 3.12741
118751 3.05002
119097 3.00086
119270 3.00401
119442 3.06823
119529 3.16647
119572 3.25776
119615 3.40822
119658 3.68380
119680 3.92060
119702 4.29594
119723 4.95892
119734 5.50976
119745 6.34972
119756 7.73758
119766 10.2985
119772 12.4763
119777 15.7930
119783 21.0529
119788 29.2629
119794 42.5122
119800 49.1094
119806 37.0792
119812 22.5029
119818 14.6266
119823 10.1667
119828 7.58786
119834 6.04992
119844 4.40822
119855 3.65319
119866 3.27382
119877 3.07586
119898 2.93115
119919 2.94144
119941 3.03237
119984 3.40787
120027 4.16387
120069 5.78564
120091 7.34020
120112 9.92593
120134 14.4826
120155 22.7327
120178 36.8919
120200 48.0939
120223 41.2393
120245 28.1992
120262 21.1603
120278 16.4014
120295 13.1965
120311 10.9859
120345 8.26164
120378 6.72488
120411 5.77470
120444 5.14445
120511 4.38113
120577 3.94618
120643 3.67091
120776 3.34536
120909 3.15941
121041 3.03767
121307 2.88216
121838 2.70350
122369 2.58460
122900 2.48807
123430 2.40186
123961 2.31857
124227 2.27931
124293 2.27707
124360 2.30104
124393 2.35318
124409 2.41145
124426 2.52229
124443 2.75837
124451 2.98365
124459 3.36592
124467 4.07762
124472 4.68876
124476 5.59209
124480 7.07029
124484 9.52182
124488 13.9473
124492 22.2445
124496 35.0589
124500 44.2929
124504 36.7225
124508 24.3256
124512 15.8558
124516 11.1606
124520 8.47224
124524 6.86347
124528 5.78948
124532 5.05783
124540 4.16341
124549 3.64543
124557 3.32478
124573 2.95520
124589 2.75736
124606 2.63753
124638 2.50293
124671 2.43057
124703 2.38557
124769 2.33190
124899 2.27679
125029 2.24409
125290 2.19804
125551 2.16104
126072 2.09649
126593 2.03812
127115 1.98442
127636 1.93818
127897 1.92293
128027 1.92109
128157 1.92862
128288 1.95933
128353 1.99574
128418 2.06560
128483 2.21515
128516 2.35887
128548 2.60517
128581 3.07853
128597 3.49431
128614 4.15136
128630 5.26951
128646 7.36893
128654 9.16731
128662 11.8433
128671 15.9873
128679 22.4329
128689 34.9612
128700 43.4281
128711 35.1946
128721 22.7283
128729 16.6580
128736 12.6055
128744 9.90063
128751 8.05198
128766 5.80778
128781 4.57187
128796 3.82733
128811 3.34656
128841 2.78568
128871 2.48356
128901 2.30202
128961 2.10292
129021 1.99994
129081 1.93859
129201 1.86938
129321 1.83031
129441 1.80394
129681 1.76748
130161 1.71907
130641 1.68693
131120 1.67580
131360 1.68631
131600 1.72021
131840 1.80558
131960 1.89035
132080 2.03571
132200 2.31219
132260 2.55521
132320 2.94439
132380 3.63673
132410 4.21035
132440 5.07713
132470 6.48216
132500 8.98053
132515 11.0147
132530 13.9739
132545 18.3882
132560 24.8995
132580 36.9262
132600 43.1892
132620 32.7266
132640 19.6648
132652 14.3436
132665 10.7323
132689 6.54864
132713 4.44449
132737 3.30315
132762 2.63372
132786 2.22375
132834 1.79259
132883 1.61529
132931 1.56299
133028 1.68295
133125 2.11862
133174 2.54146
133222 3.22472
133271 4.38258
133319 6.47896
133368 10.5860
133392 14.0651
133416 19.0722
133458 31.9746
133500 42.4045
133542 36.2996
133584 24.4879
133623 16.8969
133661 12.2530
133700 9.37651
133738 7.51678
133815 5.35468
133893 4.19833
133970 3.50419
134047 3.05270
134201 2.51231
134355 2.20667
134510 2.01264
134818 1.78066
135126 1.64478
135435 1.55291
136052 1.42948
137286 1.27328
138519 1.15786
139753 1.05795
140987 0.967628
141604 0.927996
141913 0.911832
142221 0.901699
142529 0.906870
142684 0.923736
142838 0.963916
142992 1.06073
143069 1.15909
143146 1.33400
143223 1.68041
143262 1.99286
143301 2.49593
143339 3.37809
143378 5.09470
143397 6.61444
143416 8.99100
143436 12.8618
143455 19.2058
143477 30.5573
143500 38.2945
143523 31.0064
143545 19.8402
143569 12.3844
143593 8.28198
143616 5.94756
143640 4.53648
143663 3.62290
143687 3.00376
143734 2.24689
143781 1.81841
143828 1.55322
143922 1.25319
144017 1.09404
144111 0.997982
144299 0.888735
144488 0.827494
144676 0.786835
145053 0.732781
145431 0.697905
145619 0.687891
145808 0.687775
145996 0.712058
146090 0.746993
146185 0.819025
146279 0.980429
146326 1.13841
146373 1.41151
146420 1.93329
146444 2.38516
146467 3.08135
146491 4.23081
146514 6.26020
146538 10.2088
146550 13.5559
146562 18.3211
146581 29.6017
146600 37.5741
146619 30.7297
146639 19.8124
146654 13.8127
146669 9.98311
146684 7.52551
146700 5.89544
146730 3.97227
146761 2.93800
146792 2.32178
146822 1.92532
146883 1.46156
146945 1.20876
147006 1.05414
147128 0.878986
147251 0.783873
147373 0.724013
147618 0.650904
148107 0.571592
148597 0.521769
149086 0.486204
149576 0.472933
149821 0.492986
149943 0.523315
150065 0.586319
150188 0.727531
150249 0.865931
150310 1.10579
150371 1.56582
150402 1.96747
150433 2.59589
150463 3.64687
150494 5.56210
150509 7.13867
150524 9.43863
150540 12.8669
150555 17.9314
150577 28.8432
150600 36.4170
150623 29.5483
150645 18.8185
150671 11.1322
150697 7.13978
150723 4.94780
150749 3.65871
150775 2.84005
150800 2.29420
150852 1.63274
150904 1.26174
150955 1.03300
151059 0.774238
151162 0.636631
151265 0.552895
151472 0.456572
151885 0.365071
152298 0.317393
152711 0.291582
152918 0.289360
153125 0.302005
153331 0.349913
153435 0.405355
153538 0.510129
153641 0.728847
153693 0.933843
153744 1.27547
153796 1.90150
153822 2.42313
153848 3.20453
153874 4.44303
153899 6.51486
153925 10.2301
153951 17.1521
153976 27.7311
154000 35.0664
154025 28.3136
154049 17.8840
154073 11.3665
154096 7.62570
154119 5.41430
154143 4.03541
154190 2.50305
154236 1.72820
154283 1.28303
154330 1.00482
154424 0.687391
154517 0.518059
154611 0.415877
154798 0.300843
154986 0.238501
155173 0.199659
155548 0.157068
155922 0.149723
156110 0.165940
156297 0.210043
156484 0.317313
156578 0.424487
156671 0.610826
156765 0.970539
156812 1.28737
156859 1.79059
156906 2.65855
156952 4.32244
156976 5.77687
156999 8.03578
157023 11.6935
157046 17.6927
157073 27.9869
157100 34.4684
157127 26.9842
157154 16.4468
157179 10.1819
157204 6.59199
157230 4.48466
157255 3.18162
157280 2.33320
157305 1.75532
157356 1.04898
157406 0.653270
157456 0.414090
157507 0.262303
157557 0.166823
157607 0.113630
157658 0.101606
157708 0.143184
157758 0.275938
157784 0.403951
157809 0.603714
157834 0.921439
157859 1.44266
157884 2.35198
157910 4.05320
157922 5.46784
157935 7.53506
157947 10.6095
157960 15.1313
157980 26.0391
158000 34.8267
158020 29.6754
158040 19.6757
158057 13.6362
158074 9.80184
158091 7.33839
158108 5.69834
158142 3.74061
158176 2.67207
158210 2.01982
158243 1.59192
158311 1.07403
158379 0.778911
158446 0.590864
158582 0.367116
158717 0.238900
158852 0.156301
158988 0.0998399
159123 0.0617740
159259 0.0402926
159394 0.0390677
159529 0.0701388
159597 0.106082
159665 0.164253
159732 0.256926
159800 0.405206
159868 0.648175
159935 1.06235
160003 1.81539
160037 2.42738
160071 3.30633
160105 4.61456
160138 6.61151
160172 9.74944
160206 14.7018
160253 25.3461
160300 34.0066
160347 29.1790
160394 19.5157
160438 13.1913
160481 9.30626
160525 6.89415
160568 5.33131
160655 3.51027
160742 2.53297
160829 1.94499
160916 1.56082
161089 1.09970
161263 0.838808
161437 0.673866
161785 0.480688
162132 0.374091
162480 0.309146
163175 0.241572
163870 0.218014
164566 0.219018
164913 0.226223
165261 0.244449
165435 0.273500
165522 0.306748
165608 0.373605
165695 0.526095
165739 0.679109
165782 0.946791
165826 1.46081
165847 1.90178
165869 2.57415
165891 3.65586
165913 5.47996
165934 8.75463
165956 14.8280
165978 25.0215
166000 33.1012
166022 28.0864
166044 18.6672
166069 11.6300
166094 7.81571
166119 5.64978
166143 4.34016
166168 3.48813
166193 2.90806
166243 2.18708
166292 1.77091
166342 1.50913
166441 1.20918
166541 1.05159
166640 0.960761
166839 0.873071
167236 0.845584
167633 0.893152
169222 1.37964
170811 2.26232
171208 2.55816
171606 2.89620
171804 3.09184
172003 3.33052
172102 3.48946
172201 3.71619
172301 4.11986
172350 4.49004
172400 5.13432
172437 5.98684
172473 7.55466
172510 10.7925
172528 13.7157
172546 18.1533
172573 27.8779
172600 35.3208
172627 30.2168
172654 21.1304
172682 14.7255
172711 11.1677
172739 9.13344
172768 7.90092
172825 6.56996
172882 5.92974
172939 5.58861
172997 5.39922
173111 5.24150
173339 5.27547
173568 5.47329
173796 5.73361
174025 6.02098
174139 6.16864
174253 6.32529
174310 6.42738
174339 6.50229
174368 6.61988
174396 6.84632
174410 7.05430
174425 7.39701
174439 8.02084
174453 9.28010
174460 10.4235
174468 12.2000
174475 15.0903
174482 19.8463
174491 29.6390
174500 37.6831
174509 33.4082
174518 24.7146
174527 18.9145
174536 15.3807
174544 13.2030
174553 11.8124
174570 10.1958
174587 9.34173
174604 8.83722
174621 8.52014
174655 8.16345
174690 7.98764
174724 7.89943
174792 7.84692
174929 7.93615
175066 8.11718
175614 9.07947
176709 11.2645
178900 14.7712
180199 15.4027
180849 15.3426
181174 15.2723
181336 15.2342
181417 15.2085
181458 15.1889
181478 15.2018
181488 15.3697
181494 16.0336
181496 17.6407
181497 20.2942
181499 26.9518
181499 35.3496
181500 40.7930
181501 36.0199
181502 29.0715
181502 24.3308
181503 21.4955
181504 18.6709
181507 16.7955
181512 15.8577
181523 15.4742
181545 15.3282
181589 15.2689
181675 15.2438
181849 15.2497
182197 15.3878
182545 15.7545
182631 15.8945
182718 16.0607
182762 16.1613
182805 16.3012
182827 16.4250
182849 16.6946
182860 17.0093
182870 17.7146
182876 18.4667
182881 19.8509
182884 21.0138
182887 22.7395
182889 25.3629
182892 29.3622
182896 38.2885
182900 44.9424
182904 40.1854
182908 32.0333
182912 26.1382
182916 22.9558
182921 21.0917
182925 19.9819
182929 19.2459
182933 18.7569
182942 18.1541
182950 17.8116
182959 17.6046
182976 17.3888
182993 17.2966
183010 17.2633
183044 17.2795
183111 17.4480
183179 17.6941
183450 19.0934
184325 28.1877
185200 41.2594
185400 43.1472
186175 43.0991
186950 36.8679
188196 27.6626
189442 21.8652
190688 18.1532
191935 15.5980
194427 12.2974
196919 10.2410
199411 8.82874
201904 7.79786
203150 7.38303
204396 7.02982
205019 6.88694
205330 6.83314
205642 6.80442
205954 6.83262
206109 6.89515
206265 7.02961
206421 7.32044
206499 7.58806
206577 8.01721
206654 8.75070
206732 10.1116
206771 11.2478
206810 12.9171
206849 15.4308
206888 19.2132
206944 27.1365
207000 32.6080
207056 27.5989
207112 19.7842
207156 15.5635
207200 12.8620
207244 11.1232
207288 9.96669
207376 8.59653
207464 7.85397
207552 7.40654
207640 7.11410
207816 6.76101
207992 6.55637
208168 6.42111
208520 6.24797
208872 6.14182
209224 6.09542
209400 6.12056
209488 6.16397
209576 6.25157
209664 6.43190
209708 6.59222
209752 6.84250
209796 7.25495
209840 7.98423
209884 9.38578
209906 10.5622
209928 12.2384
209964 16.1117
210000 18.7249
210036 16.1954
210072 12.3352
210095 10.6084
210117 9.40391
210162 7.96712
210207 7.21116
210252 6.77640
210297 6.50398
210342 6.32245
210432 6.10012
210522 5.97084
210613 5.88608
210793 5.77840
210973 5.70806
211153 5.65466
211513 5.57217
211874 5.50999
212054 5.48811
212234 5.47848
212414 5.49753
212504 5.53255
212594 5.60730
212684 5.77374
212729 5.93301
212774 6.20071
212819 6.69119
212842 7.09745
212864 7.70103
212887 8.64081
212909 10.1866
212932 12.8774
212954 17.6938
212977 25.4279
213000 30.7897
213023 25.9590
213046 18.4010
213068 13.5095
213091 10.7225
213114 9.09238
213136 8.08675
213159 7.42505
213181 6.97239
213226 6.40750
213271 6.08200
213316 5.87626
213407 5.63705
213497 5.50459
213587 5.42036
213767 5.31642
213948 5.25053
214128 5.20148
214489 5.12756
214850 5.07552
215030 5.06156
215211 5.06585
215391 5.11524
215481 5.18065
215572 5.30909
215662 5.57810
215707 5.82437
215752 6.22053
215797 6.89903
215842 8.16064
215887 10.7566
215910 13.0815
215932 16.5543
215966 24.3064
216000 30.0955
216034 25.8202
216068 18.4756
216095 14.3641
216121 11.7162
216148 9.99728
216175 8.84531
216229 7.46783
216282 6.71350
216336 6.25530
216390 5.95575
216497 5.59560
216604 5.39064
216711 5.25942
216926 5.09938
217140 5.00190
217355 4.93287
217784 4.83393
218641 4.69611
219499 4.58786
220357 4.49391
221215 4.41313
221644 4.38222
221859 4.37279
222073 4.37258
222288 4.39403
222395 4.42354
222502 4.48146
222609 4.60230
222663 4.71274
222716 4.89113
222770 5.20039
222824 5.79090
222850 6.29903
222877 7.07164
222904 8.28393
222931 10.1970
222965 13.8693
223000 16.4042
223035 14.0756
223069 10.4538
223092 8.79293
223114 7.64466
223158 6.28804
223203 5.58516
223247 5.18422
223292 4.93607
223336 4.77216
223425 4.57556
223514 4.46533
223603 4.39657
223781 4.31675
223959 4.27267
224137 4.24586
224493 4.22283
224849 4.24157
225026 4.27907
225204 4.35689
225382 4.52395
225471 4.68017
225560 4.93851
225649 5.40544
225694 5.79103
225738 6.36240
225783 7.25739
225827 8.74488
225872 11.3849
225916 16.2269
225958 23.4351
226000 28.1009
226042 23.0571
226084 15.7572
226114 12.2267
226143 9.89654
226173 8.35612
226203 7.31182
226262 6.05606
226322 5.37193
226381 4.96320
226440 4.70091
226559 4.39647
226678 4.23264
226797 4.13353
227034 4.02229
227272 3.96221
227509 3.92512
227985 3.88732
228460 3.89331
228697 3.92457
228935 3.99632
229172 4.15805
229291 4.31238
229410 4.57007
229529 5.03829
229588 5.42548
229648 6.00031
229707 6.89668
229766 8.37831
229826 10.9828
229885 15.6968
229943 22.8439
230000 27.5212
230058 22.6492
230115 15.4552
230158 11.8091
230200 9.44231
230243 7.89411
230285 6.85756
230370 5.62148
230455 4.95350
230541 4.55582
230626 4.30089
230796 4.00505
230966 3.84674
231136 3.75376
231477 3.66881
231817 3.68774
231987 3.75643
232157 3.90586
232328 4.22479
232498 4.96331
232583 5.70306
232668 6.98944
232753 9.37520
232838 13.9684
232919 21.3255
233000 27.0863
233081 23.3423
233162 16.4825
233248 11.6402
233333 8.90646
233418 7.31231
233504 6.32144
233675 5.21106
233845 4.62984
234016 4.28012
234187 4.04709
234529 3.75061
234870 3.56409
235041 3.49908
235212 3.46200
235383 3.48877
235468 3.55926
235553 3.71652
235639 4.05807
235724 4.83938
235767 5.59351
235810 6.83726
235852 8.96200
235895 12.6389
235948 20.1384
236000 26.8692
236053 24.3079
236105 17.8512
236143 14.2497
236181 11.7334
236219 9.98301
236256 8.74782
236332 7.17537
236408 6.25428
236484 5.66569
236559 5.26339
236711 4.75611
236862 4.45249
237013 4.25088
237316 3.99809
237619 3.84296
237922 3.73532
238527 3.59025
239133 3.49390
239739 3.43109
240041 3.41815
240193 3.42177
240344 3.43944
240496 3.48752
240571 3.53625
240647 3.62020
240723 3.77814
240761 3.91385
240798 4.12305
240836 4.47073
240874 5.10151
240893 5.62704
240912 6.39840
240931 7.56655
240950 9.33516
240975 12.6422
241000 14.5585
241025 11.9493
241050 8.46734
241079 6.09148
241108 4.91337
241137 4.29344
241166 3.93991
241195 3.72339
241224 3.58281
241282 3.41931
241339 3.33247
241397 3.28124
241513 3.22647
241628 3.19949
241744 3.18496
241975 3.17761
242206 3.20356
242322 3.24131
242438 3.31518
242553 3.46629
242611 3.60094
242669 3.81174
242727 4.15975
242784 4.77430
242842 5.94683
242900 8.30238
242950 11.7340
243000 14.2618
243050 12.3173
243100 9.02970
243143 7.08753
243186 5.87994
243228 5.11838
243271 4.62115
243357 4.03921
243442 3.72701
243527 3.53919
243613 3.41658
243784 3.26923
243955 3.18565
244126 3.13385
244468 3.08564
244809 3.11089
244980 3.17375
245151 3.30903
245322 3.59971
245408 3.86364
245493 4.27842
245579 4.96224
245664 6.15242
245750 8.36269
245835 12.6119
245918 19.5442
246000 25.1178
246083 21.8321
246165 15.4715
246224 12.1274
246283 9.83084
246341 8.26141
246400 7.16508
246518 5.79346
246635 5.00578
246753 4.50977
246871 4.17489
247106 3.75731
247341 3.50790
247576 3.33988
248046 3.11646
248517 2.95590
248987 2.81305
249222 2.74639
249340 2.72067
249457 2.71317
249575 2.75953
249634 2.83446
249692 2.98934
249751 3.31609
249810 4.05364
249839 4.76207
249869 5.92772
249898 7.91509
249927 11.3334
249964 18.3837
250000 24.7237
250036 22.3413
250073 16.3024
250102 12.6168
250131 10.1515
250160 8.49873
250189 7.36704
250248 5.96761
250306 5.17114
250364 4.66975
250422 4.33093
250539 3.90849
250656 3.65806
250772 3.49355
251005 3.29235
251238 3.18261
251355 3.15438
251471 3.15040
251588 3.19201
251646 3.24808
251704 3.35272
251763 3.55540
251821 3.98257
251850 4.38188
251879 5.03081
251908 6.14011
251937 8.07524
251969 11.3478
252000 13.6682
252031 11.6850
252063 8.50176
252089 6.67782
252115 5.54068
252141 4.82157
252167 4.34911
252220 3.79399
252272 3.49520
252324 3.31432
252376 3.19543
252481 3.04942
252585 2.96210
252690 2.90227
252899 2.82053
253108 2.76171
253316 2.71315
253734 2.62906
254570 2.47161
255406 2.29422
256242 2.05930
256660 1.90031
257078 1.69280
257495 1.40649
257704 1.21844
257913 0.989648
258122 0.715148
258331 0.420592
258436 0.309587
258488 0.286732
258540 0.305877
258592 0.393647
258645 0.591115
258697 0.962013
258749 1.59997
258812 2.89792
258875 4.96321
259000 10.6079
259063 12.5443
259126 13.1113
259251 11.7716
259365 10.0248
259479 8.62389
259594 7.59093
259708 6.82875
259936 5.81007
260165 5.17476
260393 4.74535
260621 4.43744
261078 4.02838
261535 3.77666
261992 3.63431
262220 3.61911
262334 3.64060
262448 3.70105
262563 3.84067
262620 3.96929
262677 4.17239
262734 4.50843
262791 5.10122
262848 6.23089
262905 8.49114
262953 11.5777
263000 13.6078
263048 11.5102
263095 8.39407
263125 7.01474
263154 6.05367
263214 4.90940
263273 4.30907
263332 3.96272
263391 3.74566
263450 3.60009
263569 3.42036
263687 3.31428
263806 3.24341
264042 3.15095
264279 3.08901
264516 3.04154
264990 2.96937
265463 2.91885
265700 2.90420
265937 2.90356
266174 2.93436
266292 2.97626
266410 3.05671
266529 3.21771
266647 3.57343
266706 3.91877
266766 4.50444
266825 5.55900
266884 7.52067
266942 10.6492
267000 12.9662
267058 11.2074
267116 8.21429
267175 6.18215
267235 5.02692
267294 4.35117
267354 3.93165
267472 3.46233
267591 3.21847
267710 3.07321
267828 2.97763
268066 2.85870
268303 2.78517
268541 2.73260
269015 2.65606
269490 2.59724
269965 2.55210
270203 2.54367
270321 2.55094
270440 2.57731
270559 2.64887
270618 2.72237
270677 2.84815
270737 3.07654
270796 3.52429
270826 3.91324
270856 4.50310
270885 5.41966
270915 6.84214
270957 9.99207
271000 12.5550
271043 11.1000
271085 8.22433
271122 6.43924
271159 5.31284
271197 4.59715
271234 4.12424
271308 3.56395
271382 3.25727
271456 3.06960
271530 2.94485
271679 2.79092
271827 2.69936
271976 2.63777
272272 2.55719
272866 2.46221
273459 2.40024
274053 2.36109
274349 2.35704
274646 2.37795
274943 2.46019
275091 2.55487
275240 2.72824
275388 3.06551
275536 3.78895
275611 4.47160
275685 5.59274
275759 7.52017
275833 10.8955
275917 17.0501
276000 21.9715
276084 18.9875
276167 13.3140
276242 9.75327
276316 7.55033
276391 6.16912
276466 5.26783
276615 4.21129
276764 3.63992
276913 3.29274
277063 3.06341
277361 2.78160
277660 2.61455
277958 2.50197
278555 2.35256
279152 2.24877
279749 2.16519
280048 2.12964
280346 2.10668
280496 2.11340
280570 2.13108
280645 2.17146
280720 2.26354
280757 2.35101
280794 2.49453
280831 2.74418
280869 3.21385
280906 4.18811
280925 5.06437
280943 6.37521
280972 9.37111
281000 11.6911
281028 10.1561
281057 7.36707
281080 5.75655
281103 4.72084
281126 4.04888
281148 3.59829
281194 3.05790
281240 2.75989
281286 2.57708
281332 2.45623
281423 2.30808
281515 2.22099
281607 2.16316
281790 2.08835
281973 2.03863
282156 2.00031
282523 1.93891
283256 1.83615
283989 1.73636
284722 1.62875
285455 1.50671
285822 1.44129
286005 1.41097
286188 1.38926
286372 1.39568
286463 1.42749
286555 1.50627
286647 1.69295
286692 1.87256
286738 2.16731
286784 2.67550
286830 3.61075
286876 5.47064
286898 7.06603
286921 9.38001
286961 15.3390
287000 20.2416
287039 17.5820
287079 12.1945
287109 9.10957
287140 7.06256
287171 5.69707
287201 4.76599
287263 3.62148
287324 2.97456
287385 2.56897
287446 2.29526
287569 1.95036
287691 1.73993
287814 1.59416
288059 1.39277
288549 1.11650
289039 0.874138
289529 0.616815
290019 0.344887
290264 0.233545
290387 0.203113
290509 0.207614
290632 0.272356
290754 0.439728
290877 0.779712
290999 1.40236
291124 2.48971
291250 4.17686
291500 8.60548
291625 10.0219
291751 10.3354
292001 9.06833
292217 7.65745
292433 6.53002
292649 5.69004
292864 5.06254
293296 4.20793
293728 3.65868
294159 3.27382
294591 2.98485
295454 2.56443
296317 2.25070
297180 1.98338
297612 1.85958
297828 1.80256
298044 1.75520
298259 1.73608
298367 1.75440
298475 1.81807
298583 1.98539
298637 2.15223
298691 2.42926
298745 2.91189
298799 3.80260
298853 5.58049
298907 9.30834
298953 15.0210
299000 19.7552
299047 17.2296
299093 12.0550
299137 8.62820
299180 6.53147
299224 5.22583
299267 4.37765
299355 3.38138
299442 2.83664
299529 2.49988
299616 2.27190
299790 1.97984
299964 1.79412
300138 1.65931
300487 1.46286
300835 1.31931
301183 1.23444
301358 1.24788
301532 1.38256
301619 1.56947
301706 1.95966
301793 2.84068
301837 3.67752
301880 4.99054
301940 7.73391
302000 9.79642
302060 8.27285
302120 5.62993
302194 3.54622
302269 2.47285
302343 1.88163
302418 1.52277
302566 1.11456
302715 0.884702
303013 0.615862
303310 0.457036
303608 0.379280
303905 0.416926
304054 0.504942
304203 0.662153
304351 0.914106
304500 1.29326
304750 2.32838
305000 4.01050
305500 8.68616
305750 10.3222
306000 10.8303
306500 9.76204
306918 8.42372
307335 7.30295
307753 6.44176
308171 5.78374
309006 4.86611
309842 4.26183
310677 3.83039
311512 3.50136
313183 3.01326
314854 2.63991
316525 2.31336
317360 2.15599
318195 2.00282
318613 1.93522
318822 1.90989
319031 1.89914
319240 1.92340
319344 1.96501
319448 2.04827
319553 2.21431
319657 2.56401
319709 2.88152
319762 3.38049
319814 4.18804
319866 5.50263
319933 8.11603
320000 10.1317
320067 8.76197
320134 6.29138
320184 4.96365
320234 4.07269
320283 3.47233
320333 3.05812
320433 2.54191
320532 2.24326
320631 2.05069
320731 1.91573
320930 1.73435
321328 1.51433
321726 1.35780
322521 1.08950
323317 0.827210
324113 0.563964
324909 0.340068
325306 0.283140
325505 0.284023
325704 0.314944
325903 0.387240
326102 0.515856
326301 0.720376
326500 1.02548
326875 1.98009
327250 3.59135
328000 8.29079
328375 10.0492
328750 10.7027
329500 9.84534
330339 8.18821
331178 6.89444
331597 6.41395
332016 6.07801
332226 6.02303
332436 6.18913
332541 6.48608
332645 7.14570
332698 7.74828
332750 8.68620
332803 10.1749
332855 12.5353
332928 17.5627
333000 21.5120
333073 18.9475
333145 14.1964
333205 11.4024
333264 9.59402
333324 8.41133
333383 7.61085
333502 6.62624
333621 6.05641
333740 5.68388
333859 5.41754
334098 5.04765
334574 4.57875
335050 4.24037
335526 3.94691
336002 3.66269
336479 3.36581
336598 3.30108
336717 3.28898
336776 3.36146
336806 3.45459
336836 3.62797
336866 3.96113
336895 4.63478
336925 6.12913
336940 7.52646
336955 9.67617
336977 14.8240
337000 19.3486
337023 17.4351
337045 12.9230
337069 9.58873
337092 7.61974
337116 6.43224
337139 5.67566
337163 5.16066
337186 4.79404
337233 4.31334
337280 4.01240
337327 3.80569
337421 3.53241
337515 3.34975
337609 3.20996
337796 2.98846
338172 2.61577
338547 2.23599
338923 1.79978
339298 1.28947
339486 1.02586
339674 0.814022
339768 0.766511
339861 0.800843
339955 0.974868
340049 1.37780
340162 2.34747
340275 4.07760
340500 9.48383
340613 11.6957
340726 12.6874
340951 12.0919
341136 10.8545
341321 9.72752
341507 8.82479
341692 8.11806
342062 7.11448
342433 6.44902
342803 5.97805
343173 5.62678
343914 5.13425
344655 4.80107
345396 4.56182
345766 4.47410
345951 4.44306
346136 4.42877
346322 4.45042
346414 4.49014
346507 4.56978
346599 4.72766
346692 5.05668
346738 5.35234
346785 5.81235
346831 6.54766
346877 7.72459
346939 10.1424
347000 12.0327
347062 10.8044
347123 8.53811
347173 7.22660
347223 6.37525
347272 5.82026
347322 5.44583
347422 4.99155
347521 4.73546
347621 4.57407
347721 4.46331
347920 4.31937
348119 4.22676
348318 4.15920
348717 4.06078
349513 3.92527
350310 3.82349
351904 3.66402
353497 3.53597
355091 3.42569
355887 3.37495
356684 3.32675
357481 3.28274
357879 3.26468
358278 3.25389
358676 3.26266
358875 3.28558
359074 3.33826
359274 3.45956
359373 3.57659
359473 3.77193
359572 4.12082
359672 4.80587
359722 5.40662
359772 6.33247
359821 7.80591
359871 10.1627
359936 14.8334
360000 18.3258
360065 15.7193
360129 11.2651
360172 9.12399
360215 7.63926
360300 5.88720
360385 4.97394
360471 4.44759
360556 4.11739
360642 3.89577
360812 3.62242
360983 3.46217
361154 3.35635
361496 3.22181
361837 3.14138
362008 3.12120
362179 3.12756
362350 3.19670
362435 3.28475
362520 3.44849
362606 3.76037
362691 4.38753
362777 5.75081
362819 7.00179
362862 8.91297
362931 13.8024
363000 18.3082
363069 16.7681
363138 12.6120
363209 9.50446
363280 7.64260
363280 3.38874
400000 3.27254
450000 3.15132
500000 3.06304
550000 3.00018
600000 2.95739
650000 2.93070
700000 2.91708
750000 2.91417
800000 2.92004
850000 2.93313
900000 2.95211
908820 2.95630
908820 2.95630
950000 2.97588
1.00000E+06 3.00346
1.10000E+06 3.06686
1.20000E+06 3.13681
1.25000E+06 3.17298
1.30000E+06 3.20914
1.40000E+06 3.28068
1.50000E+06 3.34915
1.60000E+06 3.41296
1.61972E+06 3.42443
1.70000E+06 3.47112
1.75000E+06 3.49710
1.80000E+06 3.52307
1.90000E+06 3.56864
2.00000E+06 3.60788
2.05390E+06 3.62007
2.05391E+06 3.62008
2.05392E+06 3.62008
2.05392E+06 3.62008
2.25000E+06 3.66443
2.50000E+06 3.72099
2.66852E+06 3.72579
3.00000E+06 3.73522
3.02700E+06 3.73305
3.02702E+06 3.73305
3.02702E+06 3.73305
3.12560E+06 3.72516
3.12563E+06 3.72516
3.12564E+06 3.72515
3.12564E+06 3.72515
3.23774E+06 3.71618
3.23774E+06 3.71618
3.28383E+06 3.71250
3.28383E+06 3.71249
3.30680E+06 3.71066
3.30683E+06 3.71066
3.30683E+06 3.71066
3.37141E+06 3.70549
3.37141E+06 3.70548
3.50000E+06 3.69520
3.64730E+06 3.67530
3.92630E+06 3.63760
4.00000E+06 3.62765
4.50000E+06 3.54661
5.00000E+06 3.45928
5.50000E+06 3.36952
6.00000E+06 3.27942
6.50000E+06 3.19008
7.00000E+06 3.10203
7.50000E+06 3.01550
8.00000E+06 2.93073
8.18852E+06 2.89960
8.30571E+06 2.88022
8.50000E+06 2.84817
9.00000E+06 2.76854
9.50000E+06 2.69273
9.73122E+06 2.65978
1.00000E+07 2.62161
1.00342E+07 2.61710
1.00342E+07 2.61709
1.05000E+07 2.55591
1.05791E+07 2.54650
1.05791E+07 2.54649
1.10000E+07 2.49621
1.15000E+07 2.44220
1.20000E+07 2.39501
1.25000E+07 2.35192
1.30000E+07 2.31624
1.34800E+07 2.28520
1.34865E+07 2.28479
1.35000E+07 2.28388
1.40000E+07 2.25550
1.45000E+07 2.22941
1.50000E+07 2.20819
1.55000E+07 2.18788
1.60000E+07 2.17109
1.65000E+07 2.15542
1.70000E+07 2.14253
1.75000E+07 2.13102
1.80000E+07 2.12190
1.85000E+07 2.11435
1.90000E+07 2.10892
1.95000E+07 2.10517
2.00000E+07 2.10326