Ni-59(n,g) ENDF/B-VII.1
Energy(eV) XS(b)
1.00000E-05 4060.09
1.25000E-05 3631.45
1.50000E-05 3315.05
2.00000E-05 2870.91
2.75000E-05 2448.32
3.50000E-05 2170.21
4.25000E-05 1969.43
5.00000E-05 1815.73
6.25000E-05 1624.04
7.50000E-05 1482.53
0.000100000 1283.91
0.000125000 1148.37
0.000150000 1048.31
0.000200000 907.864
0.000275000 774.230
0.000350000 686.282
0.000425000 622.791
0.000500000 574.185
0.000625000 513.568
0.000750000 468.821
0.00100000 406.012
0.00125000 363.149
0.00150000 331.509
0.00200000 287.097
0.00225000 270.678
0.00250000 256.788
0.00275000 244.839
0.00300000 234.416
0.00350000 217.028
0.00400000 203.012
0.00450000 191.402
0.00500000 181.581
0.00550000 173.132
0.00600000 165.762
0.00650000 159.259
0.00700000 153.467
0.00750000 148.264
0.00800000 143.557
0.00850000 139.271
0.00900000 135.348
0.00950000 131.738
0.0100000 128.403
0.0112500 121.061
0.0125000 114.850
0.0150000 104.846
0.0200000 90.8037
0.0250000 81.2212
0.0253000 80.7384
0.0264750 78.9274
0.0276500 77.2330
0.0300000 74.1481
0.0350000 68.6511
0.0376500 66.1927
0.0400000 64.2203
0.0450000 60.5504
0.0500000 57.4460
0.0550000 54.7752
0.0600000 52.4459
0.0650000 50.3908
0.0700000 48.5601
0.0750000 46.9158
0.0800000 45.4283
0.0849990 44.0743
0.0899990 42.8346
0.0949990 41.6941
0.0999990 40.6404
0.100000 40.6402
0.100003 40.6395
0.100006 40.6389
0.100012 40.6377
0.100025 40.6352
0.100049 40.6303
0.100098 40.6204
0.100195 40.6006
0.100391 40.5612
0.100781 40.4826
0.101563 40.3270
0.103125 40.0209
0.106250 39.4292
0.112500 38.3206
0.125000 36.3585
0.150000 33.1987
0.200000 28.7649
0.250000 25.7407
0.275000 24.5487
0.300000 23.5093
0.350000 21.7760
0.400000 20.3795
0.450000 19.2234
0.500000 18.2458
0.550000 17.4052
0.600000 16.6723
0.649990 16.0262
0.699990 15.4508
0.749990 14.9342
0.750000 14.9341
0.750025 14.9338
0.750049 14.9336
0.750098 14.9331
0.750195 14.9322
0.750391 14.9302
0.750781 14.9264
0.751562 14.9188
0.753124 14.9035
0.756249 14.8732
0.762498 14.8130
0.774995 14.6949
0.799990 14.4670
0.849990 14.0419
0.899990 13.6530
0.949990 13.2953
0.999990 12.9650
1.00000 12.9650
1.00003 12.9648
1.00006 12.9646
1.00012 12.9642
1.00025 12.9634
1.00049 12.9619
1.00098 12.9588
1.00195 12.9526
1.00391 12.9402
1.00781 12.9156
1.01563 12.8668
1.03125 12.7709
1.06250 12.5856
1.12500 12.2385
1.25000 11.6247
1.50000 10.6379
2.00000 9.25805
2.50000 8.32156
2.75000 7.95391
3.00000 7.63414
3.50000 7.10293
4.00000 6.67727
4.50000 6.32681
5.00000 6.03218
5.49990 5.78036
5.99990 5.56211
6.49990 5.37085
6.99990 5.20165
7.49990 5.05074
7.50000 5.05072
7.50025 5.05065
7.50049 5.05058
7.50098 5.05044
7.50195 5.05016
7.50391 5.04960
7.50781 5.04849
7.51562 5.04626
7.53124 5.04182
7.56249 5.03299
7.62498 5.01550
7.74995 4.98120
7.99990 4.91522
8.49990 4.79276
8.99990 4.68152
9.49990 4.58000
9.99990 4.48696
10.0000 4.48695
10.0003 4.48689
10.0006 4.48683
10.0012 4.48673
10.0025 4.48651
10.0049 4.48607
10.0098 4.48520
10.0195 4.48347
10.0391 4.48000
10.0781 4.47310
10.1563 4.45944
10.3125 4.43264
10.6250 4.38103
11.2500 4.28512
12.5000 4.11822
15.0000 3.85906
20.0000 3.52536
25.0000 3.33110
27.5000 3.26637
30.0000 3.21752
35.0000 3.15715
40.0000 3.13556
44.9990 3.14462
49.9990 3.17969
50.0000 3.17970
50.0025 3.17973
50.0049 3.17975
50.0098 3.17979
50.0195 3.17989
50.0391 3.18007
50.0781 3.18044
50.1562 3.18119
50.3124 3.18269
50.6249 3.18577
51.2498 3.19220
52.4995 3.20613
54.9990 3.23823
59.9990 3.31909
64.9990 3.42214
69.9990 3.54812
74.9990 3.69852
75.0000 3.69855
75.0025 3.69863
75.0049 3.69871
75.0098 3.69887
75.0195 3.69919
75.0391 3.69983
75.0781 3.70110
75.1562 3.70367
75.3124 3.70881
75.6249 3.71917
76.2498 3.74020
77.4995 3.78357
79.9990 3.87559
84.9990 4.08244
89.9990 4.32312
94.9990 4.60285
99.9990 4.92828
100.000 4.92835
100.003 4.92853
100.005 4.92870
100.010 4.92904
100.020 4.92973
100.039 4.93110
100.078 4.93385
100.156 4.93935
100.313 4.95039
100.625 4.97265
101.250 5.01780
102.500 5.11079
105.000 5.30801
110.000 5.75282
120.000 6.89871
130.000 8.54212
140.000 11.0054
148.525 14.2175
150.000 14.9293
155.000 17.8267
160.000 21.7373
165.000 27.1938
170.000 35.1278
175.000 47.2848
180.000 67.2239
185.000 103.018
187.500 132.374
190.000 175.482
192.500 241.166
195.000 344.255
197.050 471.070
200.000 725.335
201.000 812.933
202.000 881.268
203.000 914.979
203.400 916.347
204.000 904.902
205.000 853.505
206.000 773.418
207.000 680.525
208.000 587.714
209.000 502.636
209.750 445.937
210.000 428.475
210.625 387.919
211.250 351.604
212.500 290.381
215.000 203.493
217.500 148.125
220.000 111.604
225.000 68.8780
230.000 46.2233
235.000 32.9472
240.000 24.5616
245.000 18.9524
250.000 15.0281
255.000 12.1819
260.000 10.0558
265.000 8.42832
270.000 7.15639
275.000 6.14459
280.000 5.32729
282.313 5.00169
285.000 4.65822
290.000 4.10401
295.000 3.64012
300.000 3.24818
305.000 2.91425
310.000 2.62758
315.000 2.37979
320.000 2.16424
325.000 1.97566
330.000 1.80981
335.000 1.66324
340.000 1.53311
345.000 1.41710
350.000 1.31327
354.875 1.22222
355.000 1.22000
355.313 1.21449
355.625 1.20902
356.250 1.19817
357.500 1.17690
360.000 1.13595
365.000 1.05994
370.000 0.991013
375.000 0.928328
380.000 0.871167
385.000 0.818914
390.000 0.771034
395.000 0.727061
400.000 0.686592
412.500 0.598521
425.000 0.525770
450.000 0.413892
500.000 0.273371
550.000 0.192505
600.000 0.142184
700.000 0.0860758
750.000 0.0696786
800.000 0.0575927
900.000 0.0414249
1000.00 0.0315024
1100.00 0.0250574
1200.00 0.0206927
1300.00 0.0176466
1400.00 0.0154780
1500.00 0.0139190
1600.00 0.0128013
1700.00 0.0120164
1800.00 0.0114938
1900.00 0.0111885
2000.00 0.0110736
2100.00 0.0111370
2200.00 0.0113803
2300.00 0.0118201
2400.00 0.0124938
2500.00 0.0134720
2598.50 0.0148626
2600.00 0.0148881
2603.13 0.0149418
2606.25 0.0149961
2612.50 0.0151069
2625.00 0.0153372
2650.00 0.0158353
2700.00 0.0170117
2800.00 0.0204618
2900.00 0.0269786
2950.00 0.0329734
3000.00 0.0433949
3050.00 0.0647834
3075.00 0.0855830
3100.00 0.122891
3124.25 0.197409
3136.38 0.268148
3148.50 0.390374
3160.63 0.629291
3166.69 0.844853
3172.75 1.19641
3178.81 1.82496
3181.84 2.34089
3184.88 3.10419
3187.91 4.29206
3190.94 6.25242
3193.97 9.70024
3197.00 15.9894
3200.00 25.9610
3203.00 32.7278
3206.00 25.8780
3209.00 15.9382
3211.84 9.96955
3214.69 6.57475
3217.53 4.58726
3220.38 3.35776
3226.06 2.00550
3231.75 1.32857
3237.44 0.945302
3243.13 0.708504
3254.50 0.444133
3265.88 0.308135
3277.25 0.229303
3300.00 0.146550
3325.00 0.103891
3350.00 0.0816407
3400.00 0.0614034
3450.00 0.0542879
3500.00 0.0528033
3600.00 0.0588563
3700.00 0.0751291
3750.00 0.0883988
3800.00 0.106917
3850.00 0.133322
3900.00 0.172283
3950.00 0.232473
4000.00 0.331020
4050.00 0.503646
4075.00 0.638718
4100.00 0.823964
4118.70 1.00424
4170.00 1.65814
4180.00 1.77877
4190.00 1.87590
4200.00 1.93867
4210.00 1.95903
4211.00 1.95857
4213.25 1.95586
4215.50 1.95085
4220.00 1.93409
4230.00 1.86704
4265.00 1.43809
4300.00 0.996991
4303.30 0.961858
4315.39 0.843840
4327.48 0.741831
4351.65 0.579249
4400.00 0.371748
4450.00 0.252019
4500.00 0.181283
4550.00 0.136755
4600.00 0.107218
4700.00 0.0721705
4800.00 0.0534067
4900.00 0.0426313
5000.00 0.0363169
5100.00 0.0328140
5200.00 0.0313350
5300.00 0.0315618
5400.00 0.0335062
5500.00 0.0375100
5600.00 0.0443846
5700.00 0.0557919
5800.00 0.0751978
5900.00 0.110424
5950.00 0.139224
6000.00 0.181187
6050.00 0.244345
6100.00 0.341875
6143.20 0.467594
6200.00 0.697430
6237.50 0.847291
6250.00 0.881980
6262.50 0.903663
6276.00 0.910004
6300.00 0.876421
6350.00 0.685208
6400.00 0.478342
6408.90 0.447294
6431.68 0.377078
6454.45 0.319208
6500.00 0.233295
6550.00 0.171111
6600.00 0.129853
6700.00 0.0814275
6800.00 0.0557115
6900.00 0.0406363
7000.00 0.0311182
7100.00 0.0247632
7200.00 0.0203372
7300.00 0.0171559
7400.00 0.0148180
7500.00 0.0130777
7600.00 0.0117796
7700.00 0.0108246
7800.00 0.0101506
7900.00 0.00972277
8000.00 0.00952856
8100.00 0.00957822
8200.00 0.00990996
8300.00 0.0106036
8400.00 0.0118109
8500.00 0.0138224
8600.00 0.0172324
8700.00 0.0233998
8800.00 0.0360242
8850.00 0.0479660
8900.00 0.0685915
8950.00 0.109272
8975.00 0.146640
9000.00 0.209113
9020.00 0.295065
9030.00 0.359793
9040.00 0.448005
9055.00 0.650494
9062.50 0.799457
9070.00 0.992140
9070.50 1.00672
9072.31 1.06142
9074.13 1.11897
9077.75 1.24223
9085.00 1.51166
9100.00 1.94798
9103.00 1.96818
9115.00 1.77149
9130.00 1.28823
9135.60 1.14089
9145.00 0.964666
9160.00 0.856978
9170.00 0.901541
9180.00 1.06849
9190.00 1.44548
9200.00 2.27540
9207.08 3.48395
9214.15 5.79216
9220.58 9.15941
9227.00 11.3935
9233.43 9.12075
9239.85 5.73037
9247.37 3.29624
9254.89 2.05474
9262.41 1.38642
9269.93 0.996022
9277.44 0.750805
9284.96 0.587459
9300.00 0.390537
9312.50 0.295526
9325.00 0.232664
9350.00 0.156920
9375.00 0.114467
9400.00 0.0881551
9450.00 0.0584846
9500.00 0.0431521
9550.00 0.0346066
9600.00 0.0300953
9650.00 0.0289205
9700.00 0.0324467
9725.00 0.0377861
9750.00 0.0486866
9775.00 0.0732320
9787.50 0.0979991
9800.00 0.142942
9810.00 0.210981
9815.00 0.266694
9820.00 0.348835
9825.00 0.475919
9830.00 0.683937
9832.50 0.838636
9835.00 1.04491
9837.50 1.32161
9840.00 1.68946
9845.00 2.69443
9850.00 3.36258
9855.00 2.69073
9860.00 1.68568
9865.00 1.04177
9870.00 0.681213
9875.00 0.473391
9880.00 0.346367
9890.00 0.208420
9900.00 0.140142
9912.50 0.0948053
9925.00 0.0695780
9950.00 0.0439859
9974.99 0.0318988
9999.99 0.0252281
10000.0 0.125910
20000.0 0.0921295
30000.0 0.0583490
50000.0 0.0422690
60000.0 0.0342290
70000.0 0.0323833
100000 0.0268460
150000 0.0198250
200000 0.0167670
300000 0.0137450
400000 0.00842930
550000 0.00581765
600000 0.00494710
700000 0.00463120
800000 0.00431530
1.00000E+06 0.00437190
1.20000E+06 0.00350790
1.28870E+06 0.00326828
1.28871E+06 0.00326825
1.35250E+06 0.00309592
1.35252E+06 0.00309587
1.40000E+06 0.00296760
1.41500E+06 0.00296052
1.41503E+06 0.00296051
1.60000E+06 0.00287320
1.65120E+06 0.00285372
1.65124E+06 0.00285370
1.80000E+06 0.00279710
2.00000E+06 0.00270310
2.00040E+06 0.00270249
2.00042E+06 0.00270246
2.19657E+06 0.00240282
2.19660E+06 0.00240277
2.25000E+06 0.00232120
2.32878E+06 0.00231294
2.32880E+06 0.00231294
2.50000E+06 0.00229500
2.55250E+06 0.00227551
2.64350E+06 0.00224173
2.64354E+06 0.00224172
2.67450E+06 0.00223023
2.67453E+06 0.00223021
2.75000E+06 0.00220220
2.87975E+06 0.00215098
2.87980E+06 0.00215096
2.94628E+06 0.00212471
2.94630E+06 0.00212470
3.00000E+06 0.00210350
3.17280E+06 0.00201140
3.17283E+06 0.00201138
3.17690E+06 0.00200921
3.23990E+06 0.00197563
3.23995E+06 0.00197561
3.24808E+06 0.00197127
3.24810E+06 0.00197126
3.32537E+06 0.00193008
3.32540E+06 0.00193006
3.37418E+06 0.00190406
3.37420E+06 0.00190405
3.39550E+06 0.00189270
3.39554E+06 0.00189268
3.43820E+06 0.00186994
3.43825E+06 0.00186991
3.44940E+06 0.00186397
3.44943E+06 0.00186395
3.50000E+06 0.00183700
3.63040E+06 0.00178948
3.63045E+06 0.00178946
3.64770E+06 0.00178318
3.64774E+06 0.00178316
3.68028E+06 0.00177131
3.68030E+06 0.00177130
3.73210E+06 0.00175242
3.73214E+06 0.00175241
3.79316E+06 0.00173017
3.79320E+06 0.00173016
3.82670E+06 0.00171795
3.82672E+06 0.00171794
3.93858E+06 0.00167718
3.93860E+06 0.00167717
3.96095E+06 0.00166903
3.96100E+06 0.00166901
3.99040E+06 0.00165830
3.99044E+06 0.00165828
4.00000E+06 0.00165480
4.07586E+06 0.00162943
4.07590E+06 0.00162942
4.08807E+06 0.00162535
4.08810E+06 0.00162534
4.10739E+06 0.00161889
4.10740E+06 0.00161889
4.14908E+06 0.00160495
4.14910E+06 0.00160494
4.50000E+06 0.00148760
5.00000E+06 0.00138550
5.50000E+06 0.00131040
5.59983E+06 0.00129541
6.00000E+06 0.00123530
6.00000E+06 0.00123530
6.00000E+06 0.00123530
6.20176E+06 0.00120080
6.47994E+06 0.00115323
6.50000E+06 0.00114980
6.50000E+06 0.00114980
6.50000E+06 0.00114980
7.00000E+06 0.00106430
7.50000E+06 0.00102960
7.96513E+06 0.000997310
8.00000E+06 0.000994890
8.00000E+06 0.000994890
8.00000E+06 0.000994890
8.50000E+06 0.000947445
8.74211E+06 0.000924471
8.83426E+06 0.000915727
9.00000E+06 0.000900000
9.00000E+06 0.000900000
9.00000E+06 0.000900000
9.15119E+06 0.000884881
9.48898E+06 0.000851102
9.48900E+06 0.000851100
9.50000E+06 0.000850000
9.50000E+06 0.000850000
9.50000E+06 0.000850000
1.00000E+07 0.000800000
1.05000E+07 0.000770000
1.06830E+07 0.000759020
1.06833E+07 0.000759002
1.10000E+07 0.000740000
1.15000E+07 0.000710000
1.16960E+07 0.000698240
1.16961E+07 0.000698234
1.19939E+07 0.000680366
1.19940E+07 0.000680360
1.20000E+07 0.000680000
1.25000E+07 0.000650000
1.29608E+07 0.000622352
1.29610E+07 0.000622340
1.30000E+07 0.000620000
1.35000E+07 0.000590000
1.40000E+07 0.000560000
1.45000E+07 0.000530000
1.50000E+07 0.000500000
1.51967E+07 0.000488196
1.55000E+07 0.000470001
1.55000E+07 0.000470000
1.55000E+07 0.000469999
1.57399E+07 0.000455606
1.60000E+07 0.000440001
1.60000E+07 0.000440000
1.60000E+07 0.000439999
1.65000E+07 0.000410000
1.70000E+07 0.000380000
1.75000E+07 0.000350000
1.80000E+07 0.000320000
1.85000E+07 0.000290000
1.90000E+07 0.000260000
1.90200E+07 0.000258800
1.90204E+07 0.000258776
1.95000E+07 0.000230000
2.00000E+07 0.000200000