Br-81(n,g) ENDF/B-VII.1
Energy(eV) XS(b)
1.00000E-05 118.879
1.25000E-05 106.329
1.50000E-05 97.0642
2.00000E-05 84.0601
2.75000E-05 71.6867
3.50000E-05 63.5435
4.25000E-05 57.6648
5.00000E-05 53.1643
6.25000E-05 47.5516
7.50000E-05 43.4085
0.000100000 37.5929
0.000125000 33.6241
0.000150000 30.6945
0.000200000 26.5822
0.000275000 22.6694
0.000350000 20.0943
0.000425000 18.2353
0.000500000 16.8121
0.000625000 15.0372
0.000750000 13.7271
0.00100000 11.8881
0.00125000 10.6330
0.00150000 9.70661
0.00200000 8.40623
0.00275000 7.16893
0.00350000 6.35464
0.00425000 5.76680
0.00500000 5.31678
0.00625000 4.75555
0.00750000 4.34128
0.0100000 3.75978
0.0125000 3.36296
0.0150000 3.07005
0.0200000 2.65892
0.0253000 2.36424
0.0314750 2.11984
0.0376500 1.93838
0.0500000 1.68232
0.0625000 1.50496
0.0750000 1.37407
0.100000 1.19037
0.125000 1.06506
0.150000 0.972584
0.200000 0.842845
0.275000 0.719501
0.350000 0.638409
0.500000 0.535205
0.750000 0.438461
1.00000 0.380999
1.50000 0.313196
2.00000 0.273088
2.75000 0.235300
3.50000 0.210751
5.00000 0.180086
7.50000 0.152445
10.0000 0.137043
15.0000 0.121048
20.0000 0.114064
27.5000 0.111786
35.0000 0.115905
50.0000 0.142547
62.5000 0.196635
68.7500 0.247970
75.0000 0.336029
81.2500 0.509444
84.3750 0.670410
87.5000 0.946001
90.6250 1.48673
92.1875 1.98278
93.7500 2.81423
95.3125 4.37808
96.0938 5.74170
96.8750 7.90021
97.2656 9.48723
97.6563 11.6224
98.0469 14.5916
98.4375 18.8941
98.8281 25.4676
99.0234 30.1406
99.2188 36.2426
99.4141 44.4207
99.6094 55.7306
99.8047 71.9927
100.000 96.5570
100.126 119.784
100.253 152.433
100.379 200.270
100.506 274.033
100.632 395.763
100.758 614.300
100.822 792.100
100.885 1049.09
100.948 1428.24
101.011 1985.41
101.106 3179.64
101.200 3975.49
101.295 3174.76
101.389 1980.21
101.455 1401.41
101.521 1016.35
101.587 759.693
101.654 584.511
101.786 372.268
101.918 255.739
102.050 185.734
102.182 140.740
102.447 88.5553
102.711 60.7112
102.976 44.1824
103.240 33.5875
103.505 26.3987
104.033 17.5578
104.562 12.5423
105.091 9.43038
105.620 7.37088
106.678 4.90598
107.736 3.55143
108.793 2.73556
109.851 2.21341
111.967 1.62966
114.082 1.36293
118.313 1.29470
120.429 1.43929
122.544 1.73599
124.660 2.27987
126.775 3.30813
127.833 4.17725
128.891 5.49465
129.948 7.62130
131.006 11.3720
131.535 14.4239
132.064 18.9247
132.593 25.9543
133.122 37.8125
133.650 60.1318
133.915 79.4678
134.179 109.663
134.444 160.346
134.708 253.681
134.840 331.615
134.973 447.065
135.105 622.636
135.237 889.983
135.419 1421.94
135.600 1774.41
135.782 1418.21
135.963 886.178
136.088 631.105
136.213 459.801
136.338 344.880
136.463 266.097
136.714 170.062
136.964 117.090
137.214 85.1674
137.464 64.5932
137.964 40.6758
138.465 27.8928
138.965 20.2914
139.465 15.4145
139.965 12.1029
140.966 8.02661
141.967 5.71039
142.967 4.27041
143.968 3.31496
145.969 2.16581
147.970 1.52754
149.971 1.13664
151.972 0.879975
155.975 0.574367
159.977 0.406184
163.979 0.303874
167.982 0.237160
175.986 0.159210
183.991 0.120170
191.995 0.110244
195.998 0.130215
197.999 0.163079
199.000 0.194919
200.000 0.249001
201.218 0.383362
201.827 0.516253
202.436 0.754992
202.740 0.952850
203.044 1.24966
203.349 1.72435
203.653 2.55213
203.958 4.19305
204.110 5.69410
204.262 8.17964
204.414 12.7237
204.491 16.5412
204.567 22.3201
204.643 31.5946
204.719 47.5885
204.795 77.5147
204.833 102.142
204.871 136.585
204.903 174.800
204.936 218.297
205.000 272.669
205.065 218.222
205.129 136.494
205.178 93.9107
205.227 66.5190
205.277 48.8286
205.326 37.0754
205.424 23.1733
205.522 15.7422
205.621 11.3508
205.719 8.56169
205.916 5.36107
206.113 3.67159
206.309 2.67476
206.506 2.03856
206.703 1.60833
207.096 1.08030
207.489 0.781225
207.883 0.595517
208.276 0.472380
209.063 0.324202
209.849 0.241695
211.423 0.157418
212.996 0.116999
214.570 0.0942067
217.716 0.0701181
224.010 0.0501477
230.304 0.0411888
242.891 0.0341821
246.038 0.0353114
249.184 0.0416000
250.758 0.0515436
251.545 0.0617097
252.331 0.0803289
253.118 0.119663
253.511 0.158035
253.905 0.226057
254.298 0.364214
254.495 0.493935
254.691 0.714687
254.888 1.13598
254.986 1.50627
255.085 2.09251
255.183 3.09766
255.281 5.00614
255.331 6.65328
255.380 9.16504
255.429 13.1472
255.478 19.4815
255.539 31.1259
255.600 38.8782
255.661 31.1331
255.722 19.4905
255.762 14.1775
255.801 10.5164
255.880 6.24619
255.959 4.06318
256.038 2.83524
256.117 2.08421
256.196 1.59574
256.354 1.02193
256.512 0.712072
256.670 0.526709
256.985 0.325675
257.301 0.224871
257.617 0.167310
258.249 0.107409
258.881 0.0784497
259.512 0.0622366
260.776 0.0455778
263.302 0.0329507
265.829 0.0280507
275.936 0.0217687
296.150 0.0181007
316.364 0.0176773
321.418 0.0187755
326.471 0.0222768
328.998 0.0271189
330.261 0.0318577
331.525 0.0403325
332.788 0.0579473
333.420 0.0750494
334.051 0.105480
334.683 0.168131
334.999 0.228165
335.315 0.333019
335.631 0.541925
335.789 0.734346
335.946 1.05560
336.104 1.65064
336.183 2.15787
336.262 2.93569
336.341 4.21067
336.420 6.47101
336.499 10.8943
336.539 14.6839
336.578 20.1614
336.639 32.1687
336.700 40.1444
336.762 32.0702
336.823 20.0060
336.885 12.2763
336.947 7.97041
337.008 5.49765
337.070 3.99021
337.132 3.01715
337.194 2.35760
337.317 1.55223
337.441 1.10096
337.565 0.824364
337.812 0.518856
338.059 0.364614
338.306 0.277998
338.801 0.196912
339.295 0.180736
339.542 0.194967
339.789 0.233702
340.037 0.322623
340.160 0.407047
340.284 0.547356
340.407 0.800728
340.531 1.31838
340.593 1.79839
340.655 2.58808
340.716 3.96725
340.778 6.44407
340.839 10.2758
340.900 12.8301
340.961 10.2757
341.022 6.44265
341.077 4.16211
341.132 2.81449
341.187 2.00212
341.243 1.48903
341.353 0.913642
341.463 0.620634
341.573 0.452590
341.684 0.347868
341.904 0.229590
342.125 0.167855
342.345 0.131574
342.786 0.0928417
343.227 0.0739438
343.668 0.0638652
344.550 0.0568432
345.432 0.0628400
345.873 0.0730833
346.314 0.0935406
346.755 0.137556
346.976 0.179923
347.196 0.253157
347.417 0.395240
347.527 0.522053
347.637 0.725952
347.747 1.08325
347.858 1.78521
347.913 2.41378
347.968 3.40845
348.023 5.05994
348.078 7.85084
348.139 12.5544
348.200 15.6937
348.261 12.5564
348.322 7.85315
348.363 5.65387
348.404 4.16235
348.485 2.44755
348.567 1.58478
348.648 1.10438
348.729 0.812544
348.811 0.623426
348.974 0.402561
349.137 0.283749
349.300 0.212817
349.626 0.135969
349.951 0.0974171
350.277 0.0753532
350.929 0.0523007
351.581 0.0410783
352.233 0.0347693
353.536 0.0283352
356.143 0.0240925
358.750 0.0240994
361.357 0.0277124
362.661 0.0320890
363.964 0.0404641
365.268 0.0586474
365.919 0.0767116
366.571 0.109292
366.897 0.136388
367.223 0.177193
367.549 0.242741
367.875 0.357808
368.200 0.588256
368.363 0.801553
368.526 1.15880
368.689 1.82437
368.771 2.39429
368.852 3.27258
368.934 4.72204
369.015 7.31771
369.097 12.4760
369.137 16.9559
369.178 23.5298
369.239 37.5674
369.300 46.8975
369.361 37.5733
369.422 23.5373
369.486 14.2076
369.550 9.10702
369.613 6.22266
369.677 4.48602
369.741 3.37190
369.805 2.62223
369.932 1.71101
370.060 1.20256
370.187 0.891838
370.442 0.548169
370.697 0.372730
370.952 0.271466
371.207 0.207785
371.462 0.165162
371.972 0.113436
372.483 0.0844438
373.503 0.0547913
374.523 0.0406874
375.543 0.0328841
377.583 0.0249781
381.664 0.0191810
385.744 0.0171045
402.067 0.0152716
434.711 0.0163527
467.356 0.0200254
500.000 0.0287614
515.017 0.0372066
530.034 0.0536330
537.543 0.0690716
545.052 0.0970221
548.806 0.122074
552.560 0.168053
554.437 0.213364
556.314 0.312919
557.253 0.431158
557.722 0.540873
558.192 0.730645
558.661 1.11042
558.896 1.46577
559.130 2.07190
559.365 3.23783
559.482 4.27233
559.599 5.93170
559.717 8.82633
559.834 14.4928
559.893 19.5398
559.951 27.4909
560.010 40.6422
560.039 50.2759
560.069 62.6746
560.102 80.1800
560.134 100.119
560.200 125.071
560.266 100.109
560.331 62.6648
560.402 37.3904
560.472 23.8111
560.543 16.2307
560.613 11.7020
560.684 8.82094
560.754 6.88918
560.895 4.55612
561.036 3.26290
561.177 2.47587
561.459 1.61168
561.741 1.17612
562.023 0.928941
562.587 0.679428
563.151 0.569686
563.715 0.519521
564.843 0.498851
567.099 0.601365
569.355 0.864666
570.483 1.09497
571.611 1.44718
572.739 2.01964
573.866 3.03774
574.430 3.87276
574.994 5.11343
575.558 7.07161
576.122 10.4238
576.404 13.0745
576.686 16.8775
576.968 22.6019
577.250 31.7659
577.532 47.7099
577.673 60.4387
577.814 78.7624
577.955 106.236
578.096 149.338
578.237 219.942
578.378 337.178
578.539 539.364
578.700 674.005
578.861 539.063
579.022 336.873
579.195 200.321
579.368 127.060
579.541 86.1763
579.714 61.7555
579.887 46.2195
580.060 35.8009
580.405 23.2124
580.751 16.2269
581.097 11.9683
581.789 7.27362
582.480 4.88541
583.172 3.50980
583.863 2.64642
584.555 2.06957
585.938 1.37127
587.322 0.981310
588.705 0.742002
590.088 0.584961
592.854 0.398984
595.621 0.298282
601.154 0.201745
606.687 0.163371
612.220 0.150551
623.286 0.168636
628.819 0.199036
634.351 0.251110
639.884 0.340635
645.417 0.505509
648.184 0.643668
650.950 0.852473
653.717 1.18896
655.100 1.44006
656.483 1.78206
657.867 2.26459
659.250 2.97620
660.633 4.08777
662.016 5.96356
662.708 7.42563
663.399 9.49448
664.091 12.5527
664.783 17.3302
665.474 25.3455
666.166 40.1084
666.512 52.4334
666.857 70.6885
667.203 98.4461
667.549 140.712
668.025 225.023
668.500 281.036
668.976 224.640
669.451 140.338
669.751 102.758
670.051 76.6382
670.652 45.8401
671.252 29.9155
671.853 20.8825
672.453 15.3388
673.053 11.7167
674.254 7.45168
675.455 5.14340
676.656 3.75930
679.057 2.25674
681.459 1.50324
683.861 1.07307
686.262 0.804780
688.664 0.626365
693.467 0.411479
698.270 0.292516
703.073 0.223302
705.475 0.212665
706.075 0.222253
706.675 0.257374
706.976 0.306083
707.276 0.428907
707.426 0.571382
707.576 0.875883
707.651 1.17338
707.726 1.69077
707.801 2.67193
707.876 4.64454
707.938 7.33210
708.000 9.12019
708.062 7.32703
708.124 4.64325
708.186 2.91822
708.248 1.95335
708.310 1.39764
708.372 1.05853
708.496 0.689728
708.620 0.506917
708.869 0.340122
709.117 0.268582
709.613 0.208570
710.110 0.183313
712.096 0.147789
716.068 0.120553
724.012 0.0895222
739.900 0.0572287
755.788 0.0423577
763.732 0.0421798
765.718 0.0461234
767.704 0.0591103
768.697 0.0776215
769.193 0.0959606
769.690 0.128853
770.186 0.196624
770.435 0.261188
770.683 0.372777
770.931 0.590815
771.055 0.787106
771.179 1.10653
771.304 1.67533
771.366 2.14079
771.428 2.82539
771.490 3.88565
771.552 5.61735
771.614 8.62582
771.676 13.9864
771.738 22.3577
771.800 27.9382
771.862 22.3592
771.924 13.9883
771.962 10.3335
772.001 7.77326
772.077 4.71058
772.153 3.10568
772.229 2.18720
772.306 1.62005
772.382 1.24781
772.535 0.807546
772.687 0.568185
772.840 0.424198
773.145 0.267394
773.450 0.188433
773.755 0.143217
774.366 0.0960253
774.976 0.0731286
775.586 0.0602632
776.807 0.0469616
779.248 0.0367032
781.689 0.0325722
791.454 0.0268333
810.984 0.0239727
820.749 0.0250907
830.514 0.0311323
835.397 0.0405253
837.838 0.0501233
840.279 0.0678016
842.721 0.105680
843.941 0.143296
845.162 0.211467
845.772 0.268505
846.382 0.354978
846.993 0.495232
847.603 0.745141
847.908 0.950814
848.213 1.25748
848.518 1.74409
848.824 2.58328
849.129 4.21833
849.281 5.68713
849.434 8.06947
849.586 12.2986
849.663 15.7436
849.739 20.8008
849.815 28.5832
849.892 41.2322
849.968 62.9719
850.044 101.258
850.122 162.037
850.200 202.477
850.278 161.933
850.356 101.236
850.409 72.2080
850.463 52.7103
850.516 39.5806
850.570 30.5768
850.677 19.5806
850.783 13.5063
850.890 9.83828
850.997 7.47276
851.211 4.71836
851.425 3.24404
851.638 2.36627
851.852 1.80252
852.066 1.41937
852.493 0.947198
852.920 0.678535
853.348 0.511320
853.775 0.400259
854.630 0.266559
855.485 0.192242
856.340 0.146715
857.195 0.116821
858.904 0.0812466
860.614 0.0616895
864.033 0.0420252
867.452 0.0328245
870.872 0.0277942
877.710 0.0227885
891.388 0.0193920
905.065 0.0186367
932.419 0.0202960
946.096 0.0244428
949.516 0.0275861
952.935 0.0354591
954.645 0.0457153
955.499 0.0556800
956.354 0.0735215
957.209 0.110694
957.637 0.146753
958.064 0.210591
958.491 0.340290
958.705 0.462307
958.919 0.670679
959.132 1.07018
959.239 1.42324
959.346 1.98560
959.453 2.95826
959.560 4.83106
959.613 6.47305
959.667 9.01594
959.720 13.1187
959.774 19.8144
959.837 31.7019
959.900 39.6118
959.963 31.6836
960.027 19.8168
960.093 11.9542
960.159 7.66767
960.225 5.24100
960.291 3.78066
960.357 2.84419
960.423 2.21419
960.555 1.44864
960.687 1.02185
960.819 0.760845
961.083 0.472277
961.348 0.325100
961.612 0.240174
962.140 0.151158
962.669 0.107993
963.197 0.0839177
964.254 0.0595694
965.310 0.0483038
966.367 0.0423654
968.481 0.0371024
972.708 0.0359237
976.935 0.0403153
981.162 0.0518147
983.275 0.0634601
985.389 0.0846221
987.502 0.129411
988.559 0.173564
989.616 0.253164
990.144 0.319507
990.673 0.419758
991.201 0.581692
991.729 0.868536
991.994 1.10330
992.258 1.45158
992.522 2.00005
992.786 2.93646
993.050 4.73095
993.183 6.31509
993.315 8.83932
993.447 13.1972
993.579 21.5853
993.645 28.9212
993.711 40.2676
993.777 58.5366
993.843 88.2778
993.922 141.258
994.000 176.511
994.079 141.171
994.157 88.2607
994.248 50.4433
994.340 31.1167
994.431 20.7205
994.522 14.6655
994.614 10.8810
994.705 8.37561
994.888 5.38698
995.070 3.74896
995.253 2.75849
995.618 1.67476
995.983 1.12729
996.348 0.813238
996.714 0.616698
997.079 0.485681
997.809 0.327342
998.539 0.239061
999.270 0.184909
1000.00 0.149367
1001.18 0.113227
1002.37 0.0914625
1004.74 0.0679098
1009.47 0.0501680
1018.94 0.0439034
1028.41 0.0510549
1030.78 0.0575070
1033.14 0.0737238
1034.33 0.0947544
1034.92 0.115073
1035.51 0.151117
1036.10 0.225404
1036.40 0.296516
1036.69 0.420520
1036.99 0.666429
1037.14 0.891747
1037.29 1.26550
1037.43 1.95065
1037.51 2.52786
1037.58 3.40410
1037.66 4.81571
1037.73 7.26310
1037.80 11.8772
1037.88 20.9022
1037.94 33.4409
1038.00 41.8119
1038.06 33.4428
1038.12 20.9048
1038.19 12.9738
1038.25 8.54970
1038.31 5.96157
1038.37 4.36223
1038.49 2.60726
1038.61 1.73059
1038.73 1.23517
1038.85 0.929412
1039.09 0.588500
1039.33 0.412735
1039.57 0.311359
1040.05 0.204668
1040.53 0.152723
1041.01 0.123836
1041.97 0.0947306
1043.89 0.0746763
1045.81 0.0691141
1053.50 0.0746971
1057.34 0.0846640
1061.19 0.103114
1063.11 0.121454
1065.03 0.162843
1065.99 0.213287
1066.47 0.260806
1066.95 0.343641
1067.44 0.511417
1067.68 0.669285
1067.92 0.940415
1068.16 1.46628
1068.28 1.93712
1068.40 2.69923
1068.52 4.04623
1068.64 6.73828
1068.70 9.18696
1068.76 13.1406
1068.82 19.8738
1068.88 31.6134
1068.94 50.6224
1069.00 63.0080
1069.06 50.3043
1069.13 31.6184
1069.18 21.4154
1069.23 14.9929
1069.28 10.9217
1069.32 8.29523
1069.42 5.16871
1069.52 3.53417
1069.62 2.56736
1069.72 1.96259
1069.92 1.26910
1070.12 0.905607
1070.32 0.692494
1070.72 0.466717
1071.12 0.357133
1071.51 0.296925
1072.31 0.239423
1073.90 0.211919
1075.49 0.227037
1077.08 0.277839
1077.88 0.328093
1078.67 0.415841
1079.47 0.593342
1079.87 0.761827
1080.26 1.05428
1080.66 1.63798
1080.86 2.17742
1081.06 3.08238
1081.26 4.77241
1081.36 6.23401
1081.46 8.47681
1081.56 12.2379
1081.66 18.9825
1081.71 24.5725
1081.76 32.5386
1081.81 44.6273
1081.86 62.2145
1081.93 99.8362
1082.00 124.519
1082.07 99.2797
1082.15 62.2093
1082.23 36.5630
1082.30 23.1635
1082.38 15.6657
1082.46 11.2756
1082.54 8.46062
1082.62 6.60377
1082.78 4.36245
1082.94 3.11435
1083.10 2.35666
1083.42 1.52799
1083.73 1.10888
1084.05 0.871309
1084.68 0.629641
1085.32 0.520941
1085.95 0.468831
1087.22 0.438919
1089.76 0.506040
1091.03 0.584068
1092.30 0.698959
1092.93 0.775129
1093.57 0.867794
1094.20 0.981952
1094.84 1.12388
1095.47 1.30359
1096.11 1.53466
1096.74 1.83942
1097.37 2.25111
1098.01 2.82794
1098.64 3.66789
1099.28 4.96247
1099.91 7.09760
1100.23 8.73239
1100.55 10.9941
1100.86 14.2515
1101.18 19.1641
1101.50 27.0397
1101.82 40.4938
1102.13 65.4127
1102.29 85.7709
1102.45 113.935
1102.73 182.305
1103.00 227.874
1103.28 182.202
1103.55 113.835
1103.72 84.4888
1103.88 63.7566
1104.21 38.8623
1104.55 25.6627
1104.88 18.0885
1105.21 13.3787
1105.54 10.2887
1106.20 6.62233
1106.86 4.62144
1107.53 3.41726
1108.85 2.10775
1110.18 1.45109
1111.50 1.07871
1114.15 0.699805
1116.80 0.529330
1119.45 0.449101
1124.76 0.422074
1130.06 0.535181
1132.71 0.674928
1135.36 0.932905
1138.01 1.45864
1139.33 1.94583
1140.66 2.76007
1141.99 4.26834
1142.65 5.55128
1143.31 7.51402
1143.97 10.7223
1144.64 16.3834
1145.30 27.3907
1145.63 36.7459
1145.96 50.2380
1146.48 80.2417
1147.00 100.184
1147.52 80.1559
1148.04 50.1551
1148.49 32.7911
1148.95 22.3253
1149.40 15.9273
1149.86 11.8525
1150.76 7.23472
1151.67 4.86164
1152.58 3.49611
1153.48 2.64518
1155.30 1.68796
1157.11 1.19356
1158.93 0.908293
1162.56 0.615238
1166.18 0.484913
1169.81 0.427781
1177.07 0.429588
1180.70 0.477934
1184.33 0.566605
1187.96 0.717441
1191.59 0.979402
1193.40 1.18405
1195.21 1.47159
1197.03 1.89148
1198.84 2.53398
1200.66 3.58023
1202.47 5.41879
1203.38 6.88315
1204.29 8.95803
1205.19 11.9457
1206.10 16.2270
1207.55 25.8875
1209.00 32.2893
1210.45 25.8114
1211.90 16.1559
1212.88 11.6251
1213.85 8.55366
1215.80 5.04064
1217.75 3.28122
1219.70 2.30518
1221.65 1.71661
1223.60 1.33826
1227.50 0.904509
1231.40 0.683146
1235.30 0.565210
1243.10 0.492725
1250.90 0.588020
1254.80 0.729214
1258.70 0.999446
1262.60 1.55670
1264.55 2.07273
1266.50 2.92964
1268.45 4.49485
1269.43 5.80591
1270.40 7.78318
1271.38 10.9386
1272.35 16.3346
1273.33 26.3047
1273.81 34.4098
1274.30 45.6478
1275.15 72.9665
1276.00 91.1213
1276.85 72.8430
1277.70 45.5248
1278.24 33.3798
1278.77 24.9424
1279.84 14.9708
1280.91 9.80181
1281.97 6.86441
1283.04 5.05915
1284.11 3.87822
1286.25 2.48566
1288.38 1.73044
1290.52 1.27665
1294.79 0.782505
1299.06 0.533959
1303.33 0.393339
1307.61 0.318285
1309.74 0.342005
1310.28 0.389612
1310.81 0.526184
1311.08 0.702020
1311.21 0.863823
1311.34 1.12857
1311.48 1.61154
1311.61 2.60394
1311.68 3.54772
1311.74 5.13633
1311.81 8.00274
1311.88 13.2725
1311.94 21.1278
1312.00 26.2388
1312.06 20.9924
1312.12 13.2708
1312.18 8.41675
1312.24 5.66537
1312.30 4.03513
1312.36 3.01836
1312.47 1.89256
1312.59 1.32514
1312.71 1.00023
1312.82 0.800647
1313.05 0.576171
1313.29 0.458792
1313.52 0.389908
1313.98 0.314870
1314.91 0.252272
1315.84 0.224182
1319.56 0.176198
1327.00 0.132419
1334.44 0.111515
1336.30 0.112468
1338.16 0.124872
1339.09 0.145893
1339.55 0.167513
1340.02 0.206858
1340.48 0.288503
1340.72 0.366565
1340.95 0.500724
1341.18 0.762785
1341.30 0.996556
1341.41 1.37421
1341.53 2.03931
1341.64 3.36018
1341.70 4.55329
1341.76 6.46569
1341.82 9.69068
1341.88 15.2481
1341.94 24.3821
1342.00 30.4868
1342.06 24.3829
1342.12 15.2489
1342.17 10.3698
1342.22 7.33723
1342.27 5.39127
1342.32 4.10207
1342.41 2.57600
1342.51 1.77323
1342.61 1.29609
1342.70 0.996671
1342.90 0.651852
1343.09 0.470104
1343.28 0.362881
1343.67 0.248170
1344.05 0.190914
1344.44 0.158217
1345.21 0.123890
1346.75 0.0967233
1348.30 0.0853846
1354.47 0.0681143
1366.81 0.0538033
1391.50 0.0405128
1416.19 0.0365838
1428.53 0.0395315
1431.62 0.0428310
1434.70 0.0518061
1436.25 0.0638775
1437.02 0.0757235
1437.79 0.0969803
1438.56 0.141363
1438.95 0.184387
1439.33 0.260143
1439.72 0.413692
1439.91 0.557424
1440.10 0.799802
1440.30 1.26176
1440.39 1.66812
1440.49 2.30220
1440.59 3.39203
1440.68 5.41857
1440.73 7.14073
1440.78 9.73599
1440.83 13.7702
1440.88 20.0734
1440.94 32.2505
1441.00 40.2188
1441.06 32.0453
1441.13 20.0750
1441.18 13.3616
1441.23 9.28602
1441.28 6.72521
1441.33 5.05606
1441.43 3.11349
1441.54 2.10704
1441.64 1.51535
1441.74 1.14648
1441.95 0.724867
1442.15 0.504257
1442.36 0.374832
1442.76 0.237305
1443.17 0.169380
1443.58 0.131072
1444.40 0.0917945
1446.04 0.0628958
1447.68 0.0527909
1450.96 0.0461472
1454.24 0.0446572
1467.34 0.0493691
1480.45 0.0622225
1493.56 0.0873819
1500.12 0.108864
1506.67 0.141617
1513.23 0.194793
1519.78 0.289207
1523.06 0.366511
1526.34 0.481105
1529.61 0.661355
1532.89 0.968495
1534.53 1.21023
1536.17 1.55546
1537.81 2.07196
1539.45 2.89161
1541.09 4.30049
1541.90 5.41068
1542.72 6.98973
1543.54 9.32387
1544.36 12.9071
1545.18 18.6187
1546.00 27.8074
1547.00 44.5071
1548.00 55.6201
1549.00 44.4349
1550.00 27.7375
1550.91 17.8195
1551.81 11.9679
1552.72 8.44409
1553.62 6.22499
1555.43 3.74174
1557.24 2.48004
1559.05 1.75885
1560.86 1.31076
1564.49 0.807567
1568.11 0.547233
1571.73 0.395609
1575.35 0.299712
1578.97 0.235268
1586.21 0.156759
1593.45 0.112612
1600.70 0.0853656
1607.94 0.0674015
1622.42 0.0460539
1636.91 0.0347050
1651.39 0.0296340
1655.01 0.0301476
1658.63 0.0338428
1660.44 0.0398256
1662.25 0.0572179
1663.16 0.0810941
1664.07 0.145987
1664.52 0.231033
1664.74 0.311300
1664.97 0.449024
1665.20 0.716622
1665.31 0.954161
1665.42 1.33610
1665.54 2.00425
1665.65 3.31728
1665.71 4.50287
1665.76 6.34763
1665.82 9.46490
1665.88 14.6315
1665.94 23.4421
1666.00 29.1803
1666.06 23.2939
1666.13 14.6324
1666.17 10.6022
1666.21 7.83876
1666.29 4.66215
1666.37 3.02219
1666.45 2.11221
1666.53 1.55021
1666.61 1.18915
1666.78 0.762705
1666.94 0.532837
1667.10 0.395346
1667.43 0.246698
1667.75 0.171976
1668.08 0.129458
1668.73 0.0851960
1670.03 0.0519660
1671.34 0.0398987
1673.94 0.0311606
1676.54 0.0283033
1681.75 0.0275067
1686.96 0.0303473
1692.17 0.0388705
1694.78 0.0480318
1697.38 0.0651435
1699.99 0.102034
1701.29 0.138707
1702.59 0.205004
1703.24 0.260432
1703.90 0.344120
1704.55 0.479299
1705.20 0.718678
1705.52 0.914762
1705.85 1.20450
1706.17 1.66161
1706.50 2.43805
1706.83 3.92602
1706.99 5.23631
1707.15 7.30221
1707.31 10.8693
1707.48 17.6840
1707.56 23.6352
1707.64 32.6655
1707.72 47.0069
1707.80 69.9679
1707.90 111.991
1708.00 139.560
1708.10 111.533
1708.20 69.6068
1708.31 40.3232
1708.43 25.1104
1708.54 16.8253
1708.65 11.9584
1708.77 8.89826
1708.88 6.86349
1709.10 4.42565
1709.33 3.08382
1709.56 2.27013
1710.01 1.37747
1710.46 0.925362
1710.91 0.665564
1711.36 0.502757
1711.82 0.394277
1712.72 0.262680
1713.62 0.189205
1714.53 0.143966
1715.43 0.114204
1717.24 0.0786259
1719.04 0.0589983
1722.66 0.0391613
1726.27 0.0298111
1729.89 0.0246671
1737.12 0.0195229
1751.57 0.0162239
1766.03 0.0163284
1780.49 0.0192095
1787.72 0.0224035
1794.95 0.0279367
1802.18 0.0382515
1805.79 0.0470325
1809.41 0.0606128
1813.02 0.0836413
1816.63 0.129923
1818.44 0.176997
1819.35 0.216079
1820.25 0.278139
1821.15 0.393487
1821.60 0.497667
1822.06 0.673847
1822.51 1.02000
1822.73 1.33934
1822.96 1.87851
1823.19 2.90197
1823.30 3.79984
1823.41 5.22384
1823.52 7.66862
1823.64 12.3384
1823.69 16.4315
1823.75 22.6123
1823.81 32.4260
1823.86 48.1425
1823.93 76.9129
1824.00 96.1116
1824.07 76.9215
1824.14 48.1595
1824.21 28.5870
1824.29 18.2629
1824.36 12.4964
1824.44 9.04958
1824.51 6.85624
1824.58 5.38572
1824.73 3.61125
1824.88 2.62529
1825.03 2.03310
1825.32 1.39057
1825.62 1.07620
1825.92 0.909237
1826.51 0.771321
1827.69 0.810415
1828.88 1.09693
1829.47 1.36170
1830.06 1.76452
1830.66 2.40669
1831.25 3.50257
1831.55 4.36689
1831.84 5.59424
1832.14 7.42210
1832.43 10.3050
1832.58 12.4241
1832.73 15.2288
1832.88 19.0621
1833.03 24.4621
1833.18 32.3334
1833.32 44.2304
1833.47 62.7911
1833.62 91.9028
1833.81 147.172
1834.00 183.744
1834.19 146.829
1834.38 91.8672
1834.50 66.9884
1834.63 49.7870
1834.87 29.6358
1835.11 19.2860
1835.36 13.4406
1835.60 9.86344
1835.85 7.53075
1836.33 4.78903
1836.82 3.30738
1837.31 2.41959
1838.28 1.45675
1839.26 0.973128
1840.24 0.697055
1841.21 0.524476
1842.19 0.409661
1844.14 0.270893
1846.09 0.193539
1848.04 0.146046
1849.99 0.114829
1853.89 0.0777240
1857.80 0.0575243
1861.70 0.0455529
1865.60 0.0381915
1873.41 0.0316560
1877.31 0.0318158
1881.21 0.0352540
1885.11 0.0455242
1887.07 0.0566066
1889.02 0.0772332
1890.97 0.121342
1891.94 0.164831
1892.92 0.242855
1893.41 0.307639
1893.90 0.405085
1894.38 0.561510
1894.87 0.835447
1895.36 1.38514
1895.60 1.89439
1895.85 2.74935
1896.09 4.34578
1896.21 5.71690
1896.33 7.83983
1896.46 11.3561
1896.58 17.7065
1896.64 22.9025
1896.70 30.4501
1896.76 41.6470
1896.82 57.8910
1896.91 92.6599
1897.00 115.429
1897.09 92.2424
1897.18 57.5630
1897.26 38.0589
1897.33 26.1264
1897.41 18.7378
1897.48 14.0280
1897.64 8.56328
1897.79 5.74510
1897.94 4.10213
1898.09 3.07830
1898.39 1.91716
1898.69 1.30939
1899.00 0.955064
1899.30 0.729823
1899.60 0.579083
1900.21 0.396265
1900.81 0.295749
1901.42 0.236923
1902.02 0.202572
1903.23 0.182691
1903.84 0.197708
1904.44 0.241142
1905.05 0.346619
1905.35 0.452856
1905.65 0.640244
1905.96 1.01449
1906.11 1.35508
1906.26 1.91555
1906.41 2.93817
1906.49 3.79027
1906.56 5.04820
1906.64 7.06145
1906.71 10.4067
1906.79 16.5361
1906.86 27.9181
1906.93 44.6108
1907.00 55.7274
1907.07 44.6104
1907.14 27.9173
1907.18 20.4012
1907.23 15.1933
1907.31 9.12530
1907.40 5.95386
1907.49 4.17710
1907.58 3.07409
1907.66 2.36174
1907.84 1.51695
1908.01 1.05937
1908.19 0.784633
1908.54 0.486133
1908.89 0.335084
1909.24 0.248452
1909.94 0.157116
1910.63 0.112093
1911.33 0.0863209
1912.73 0.0589371
1915.53 0.0368616
1918.32 0.0277782
1923.92 0.0201059
1929.51 0.0170629
1935.10 0.0159259
1940.69 0.0164565
1946.28 0.0230236
1947.68 0.0299021
1949.08 0.0489075
1949.78 0.0743488
1950.48 0.142176
1950.83 0.229248
1951.18 0.445698
1951.35 0.701103
1951.44 0.923224
1951.53 1.26515
1951.62 1.84300
1951.70 2.88735
1951.75 3.76212
1951.79 5.01568
1951.83 6.94340
1951.88 9.77321
1951.94 15.6627
1952.00 19.6034
1952.06 15.6632
1952.12 9.77381
1952.17 6.73349
1952.22 4.77700
1952.27 3.51231
1952.31 2.66989
1952.41 1.67469
1952.50 1.14584
1952.59 0.829251
1952.69 0.629709
1952.87 0.398881
1953.25 0.204648
1953.62 0.127372
1954.37 0.0674111
1955.12 0.0450644
1956.61 0.0285284
1958.11 0.0226781
1964.09 0.0177401
1976.06 0.0200707
1988.03 0.0280343
1994.02 0.0355435
2000.00 0.0478387
2003.89 0.0604530
2007.78 0.0796738
2011.67 0.110986
2015.56 0.167014
2017.50 0.213317
2019.44 0.282588
2021.39 0.393040
2023.33 0.584762
2025.28 0.962293
2026.25 1.30506
2027.22 1.86809
2028.19 2.88497
2028.68 3.72851
2029.17 4.98931
2029.65 6.97736
2030.14 10.3200
2030.62 16.3457
2030.87 21.1259
2031.11 27.6457
2031.56 44.0908
2032.00 54.9875
2032.45 44.0677
2032.89 27.6230
2033.31 17.4429
2033.73 11.5535
2034.16 8.07302
2034.58 5.90762
2035.42 3.51717
2036.27 2.31784
2037.11 1.63697
2037.95 1.21635
2039.64 0.746036
2041.33 0.503674
2043.01 0.363011
2044.70 0.274212
2046.39 0.214619
2049.76 0.142110
2053.14 0.101394
2056.51 0.0762732
2059.89 0.0596952
2066.63 0.0398698
2073.38 0.0289324
2080.13 0.0222828
2086.88 0.0179679
2100.38 0.0130463
2113.87 0.0110447
2120.62 0.0112777
2127.37 0.0138992
2130.75 0.0182640
2134.12 0.0311534
2135.81 0.0491084
2136.65 0.0669319
2137.49 0.0991076
2138.34 0.166576
2138.76 0.232134
2139.18 0.347784
2139.60 0.582568
2139.81 0.802692
2140.02 1.17705
2140.24 1.89001
2140.34 2.51883
2140.45 3.50417
2140.55 5.20418
2140.66 8.39092
2140.71 11.1509
2140.76 15.2602
2140.82 21.8312
2140.87 31.9951
2140.93 51.2293
2141.00 63.7515
2141.07 50.9247
2141.13 31.7578
2141.19 21.3733
2141.24 14.9728
2141.29 10.9025
2141.35 8.22469
2141.45 5.10016
2141.56 3.44603
2141.67 2.47611
2141.77 1.86222
2141.98 1.16115
2142.20 0.791189
2142.41 0.574687
2142.83 0.343415
2143.26 0.228917
2143.68 0.164310
2144.53 0.0976789
2145.38 0.0657503
2146.23 0.0480528
2147.92 0.0300850
2151.32 0.0168987
2154.71 0.0121354
2161.50 0.00858898
2168.29 0.00728295
2181.87 0.00643543
2195.45 0.00661730
2209.02 0.00798086
2215.81 0.00959509
2222.60 0.0126961
2229.39 0.0194964
2232.78 0.0263288
2236.18 0.0388127
2237.88 0.0493427
2239.57 0.0654110
2241.27 0.0917214
2242.97 0.139259
2243.82 0.178958
2244.66 0.238931
2245.51 0.336023
2246.36 0.508065
2246.79 0.649374
2247.21 0.858809
2247.63 1.18905
2248.06 1.75390
2248.48 2.84304
2248.70 3.80616
2248.91 5.34624
2249.12 8.01878
2249.33 13.2043
2249.44 17.7737
2249.54 24.9122
2249.65 36.5391
2249.76 55.7252
2249.88 89.1909
2250.00 111.211
2250.12 88.8924
2250.25 55.4896
2250.39 31.3300
2250.54 19.1669
2250.68 12.6929
2250.83 8.96865
2250.98 6.63278
2251.12 5.10098
2251.41 3.27067
2251.70 2.26988
2251.99 1.66564
2252.58 1.00542
2253.16 0.671903
2253.74 0.481155
2254.32 0.361848
2254.90 0.282347
2256.07 0.186353
2257.23 0.133051
2258.40 0.100585
2259.56 0.0795987
2261.89 0.0563206
2264.22 0.0493382
2265.38 0.0544176
2266.55 0.0777196
2267.13 0.112106
2267.71 0.205331
2268.00 0.323769
2268.29 0.612084
2268.44 0.941978
2268.58 1.63208
2268.66 2.30133
2268.73 3.45367
2268.80 5.60380
2268.88 9.74839
2268.94 15.6420
2269.00 19.4913
2269.06 15.5424
2269.13 9.74839
2269.17 7.00525
2269.21 5.14469
2269.25 3.88526
2269.29 3.01491
2269.38 1.94648
2269.46 1.35213
2269.63 0.758947
2269.80 0.487918
2270.13 0.253672
2270.47 0.159068
2271.14 0.0841586
2271.81 0.0554377
2273.15 0.0330330
2274.49 0.0241406
2277.18 0.0165070
2279.86 0.0129683
2285.23 0.00940339
2290.59 0.00754247
2301.33 0.00561510
2312.06 0.00465104
2333.53 0.00374554
2355.00 0.00337389
2397.94 0.00334067
2419.41 0.00399333
2430.14 0.00596272
2435.51 0.0127535
2436.85 0.0194376
2438.19 0.0377366
2438.86 0.0621314
2439.53 0.126931
2439.87 0.209786
2440.21 0.414523
2440.37 0.654374
2440.54 1.17395
2440.62 1.69741
2440.71 2.63982
2440.75 3.40853
2440.79 4.52198
2440.83 6.16831
2440.88 8.52745
2440.94 13.7052
2441.00 17.0924
2441.06 13.6178
2441.13 8.52787
2441.19 5.30333
2441.25 3.49771
2441.31 2.43808
2441.37 1.78176
2441.49 1.05996
2441.61 0.698629
2441.85 0.367837
2442.09 0.226852
2442.57 0.112053
2443.05 0.0677429
2444.01 0.0339806
2444.97 0.0216378
2448.81 0.00975104
2456.50 0.00935446
2460.34 0.0128668
2464.18 0.0235998
2466.10 0.0385548
2468.02 0.0802375
2468.98 0.136650
2469.46 0.191571
2469.94 0.289077
2470.42 0.488413
2470.66 0.676283
2470.90 0.998172
2471.14 1.61836
2471.26 2.16898
2471.38 3.05165
2471.50 4.58893
2471.62 7.58880
2471.68 10.2482
2471.74 14.4285
2471.80 21.2931
2471.86 32.7335
2471.93 52.3057
2472.00 65.3264
2472.07 52.3063
2472.14 32.7347
2472.19 21.7395
2472.25 14.9699
2472.31 10.7585
2472.36 8.03575
2472.48 4.91522
2472.59 3.29187
2472.71 2.35082
2472.82 1.75993
2473.05 1.09026
2473.28 0.740669
2473.50 0.535863
2473.96 0.318123
2474.42 0.210989
2474.87 0.150535
2475.78 0.0883769
2477.61 0.0422946
2479.43 0.0256996
2483.08 0.0136493
2486.73 0.00940734
2494.02 0.00644798
2501.32 0.00553960
2515.91 0.00528693
2530.50 0.00586545
2545.09 0.00719646
2559.68 0.00998052
2566.97 0.0126704
2574.27 0.0178479
2577.92 0.0230894
2581.56 0.0347650
2583.39 0.0487989
2585.21 0.0850807
2586.12 0.132466
2586.58 0.178035
2587.04 0.258289
2587.49 0.420523
2587.72 0.572560
2587.95 0.831296
2588.18 1.32493
2588.29 1.75875
2588.40 2.44685
2588.52 3.62689
2588.63 5.87446
2588.69 7.81657
2588.75 10.7912
2588.80 15.5106
2588.86 22.8912
2588.93 36.7428
2589.00 45.8157
2589.07 36.5352
2589.14 22.8924
2589.20 15.3057
2589.26 10.6642
2589.31 7.73584
2589.37 5.82131
2589.49 3.58812
2589.60 2.42640
2589.71 1.74288
2589.83 1.31584
2590.06 0.827569
2590.29 0.571965
2590.52 0.422059
2590.97 0.263017
2591.43 0.184884
2591.89 0.141279
2592.80 0.0974253
2594.63 0.0682449
2596.46 0.0621512
2600.12 0.0714549
2603.79 0.101215
2605.62 0.127805
2607.45 0.168621
2609.28 0.235060
2611.11 0.352968
2612.02 0.449532
2612.94 0.592476
2613.85 0.817081
2614.77 1.19920
2615.68 1.92729
2616.14 2.56693
2616.60 3.57725
2617.06 5.30886
2617.29 6.66863
2617.51 8.58522
2617.74 11.4096
2617.97 15.7193
2618.20 22.5253
2618.43 33.2933
2618.71 53.2724
2619.00 66.5891
2619.29 53.2593
2619.57 33.2803
2619.85 20.7787
2620.13 13.6519
2620.40 9.48625
2620.68 6.91469
2620.96 5.23954
2621.23 4.09635
2621.79 2.69037
2622.34 1.89653
2622.90 1.40691
2624.00 0.861251
2625.11 0.580838
2626.22 0.418206
2627.33 0.315641
2628.44 0.246910
2630.65 0.163275
2632.87 0.116347
2635.08 0.0873966
2637.30 0.0683094
2641.73 0.0454915
2646.16 0.0329139
2650.59 0.0252647
2655.02 0.0202807
2663.89 0.0144299
2672.75 0.0113046
2690.47 0.00839697
2708.20 0.00736135
2725.92 0.00718204
2761.37 0.00845903
2796.82 0.0125023
2814.55 0.0166985
2832.27 0.0243044
2841.13 0.0306308
2850.00 0.0401635
2858.86 0.0555286
2867.72 0.0827534
2872.15 0.105108
2876.58 0.138448
2881.02 0.191466
2885.45 0.283543
2887.66 0.357546
2889.88 0.465471
2892.09 0.631876
2894.31 0.907528
2895.42 1.11876
2896.52 1.41299
2897.63 1.83910
2898.74 2.48592
2899.85 3.53053
2900.96 5.34706
2901.51 6.77907
2902.06 8.78938
2902.62 11.6523
2903.17 15.6980
2904.09 25.1003
2905.00 31.3587
2905.92 25.0823
2906.83 15.6825
2907.40 11.5251
2907.97 8.62475
2909.12 5.19163
2910.26 3.40673
2911.40 2.39267
2912.55 1.76924
2913.69 1.36252
2915.98 0.885464
2918.26 0.630719
2920.55 0.482774
2925.12 0.341138
2929.70 0.316582
2931.98 0.348711
2934.27 0.433548
2936.56 0.634268
2937.70 0.833557
2938.84 1.18308
2939.99 1.87105
2940.56 2.49167
2941.13 3.49888
2941.42 4.25620
2941.70 5.29093
2941.99 6.75192
2942.27 8.88859
2942.56 12.1871
2942.85 17.5497
2942.99 21.5126
2943.13 26.7681
2943.27 33.7743
2943.42 42.9544
2943.71 68.6396
2944.00 85.7404
2944.15 80.6390
2944.29 68.5288
2944.59 42.8631
2944.88 26.4585
2945.17 17.2734
2945.46 11.9599
2945.75 8.70371
2946.04 6.58789
2946.33 5.15547
2946.91 3.40074
2947.49 2.41299
2948.07 1.80760
2949.23 1.13919
2950.39 0.810995
2951.55 0.664641
2952.13 0.668656
2952.71 0.807856
2953.00 1.02980
2953.15 1.24318
2953.29 1.60312
2953.44 2.26668
2953.51 2.82899
2953.58 3.66582
2953.66 5.01927
2953.73 7.29539
2953.80 11.5406
2953.87 19.5979
2953.94 31.1365
2954.00 38.8238
2954.06 31.1293
2954.13 19.5832
2954.18 13.4541
2954.23 9.55442
2954.28 7.05885
2954.33 5.43655
2954.43 3.50295
2954.53 2.46927
2954.63 1.85344
2954.72 1.46537
2954.92 1.01673
2955.12 0.775080
2955.32 0.630181
2955.72 0.468140
2956.51 0.327592
2957.30 0.262671
2958.89 0.195867
2960.48 0.158426
2963.66 0.114761
2966.83 0.0893181
2973.18 0.0607921
2979.53 0.0454213
2992.24 0.0297801
3004.94 0.0225501
3017.64 0.0195539
3030.35 0.0211452
3036.70 0.0261874
3039.87 0.0317397
3043.05 0.0421835
3046.23 0.0647345
3047.81 0.0871263
3049.40 0.127593
3050.20 0.161336
3050.99 0.212312
3051.78 0.294588
3052.58 0.440147
3052.97 0.559059
3053.37 0.735173
3053.77 1.01186
3054.17 1.48261
3054.56 2.37985
3054.76 3.16975
3054.96 4.41432
3055.16 6.55494
3055.36 10.5962
3055.46 14.0701
3055.55 19.3643
3055.65 27.7118
3055.75 40.9669
3055.88 65.5118
3056.00 81.8617
3056.12 65.5070
3056.25 40.9620
3056.34 28.3505
3056.43 20.2486
3056.53 14.9129
3056.62 11.3767
3056.80 7.14725
3056.99 4.87828
3057.17 3.52397
3057.36 2.66435
3057.73 1.67161
3058.09 1.14574
3058.46 0.834768
3058.83 0.636005
3059.20 0.501404
3059.94 0.336019
3060.68 0.242488
3061.42 0.184498
3062.15 0.146142
3063.63 0.100312
3065.11 0.0753288
3068.06 0.0516521
3071.01 0.0444070
3073.96 0.0514778
3075.44 0.0678770
3076.92 0.117265
3077.66 0.184873
3078.02 0.250540
3078.39 0.366317
3078.76 0.599230
3078.95 0.816442
3079.13 1.18021
3079.32 1.86635
3079.41 2.45533
3079.50 3.37035
3079.59 4.91513
3079.69 7.70682
3079.73 10.0117
3079.78 13.3893
3079.82 18.4563
3079.87 26.0542
3079.94 41.7612
3080.00 52.0051
3080.07 41.5082
3080.13 26.0549
3080.19 16.5701
3080.25 11.1085
3080.31 7.83345
3080.37 5.77294
3080.49 3.47291
3080.61 2.30559
3080.73 1.63932
3080.85 1.22533
3081.09 0.760721
3081.33 0.520365
3081.57 0.380353
3082.05 0.232226
3083.01 0.118720
3083.97 0.0768280
3085.89 0.0459326
3087.81 0.0351549
3091.66 0.0288091
3095.50 0.0296613
3099.34 0.0357506
3103.18 0.0519404
3105.10 0.0706249
3107.02 0.114648
3107.98 0.168120
3108.46 0.217794
3108.94 0.303593
3109.42 0.474693
3109.66 0.634264
3109.90 0.905872
3110.14 1.42644
3110.26 1.88718
3110.38 2.62427
3110.50 3.90530
3110.62 6.39880
3110.68 8.60421
3110.74 12.0635
3110.80 17.7288
3110.86 27.1423
3110.93 43.4855
3111.00 54.1641
3111.07 43.2357
3111.14 27.1474
3111.21 15.9325
3111.29 10.0840
3111.36 6.84600
3111.44 4.92225
3111.51 3.70316
3111.59 2.88813
3111.74 1.90692
3111.89 1.36237
3112.04 1.03491
3112.34 0.677616
3112.64 0.499787
3112.94 0.402007
3113.54 0.311138
3114.14 0.283564
3114.74 0.287923
3115.95 0.367033
3116.55 0.449683
3117.15 0.580403
3117.75 0.794842
3118.35 1.17400
3118.95 1.93152
3119.25 2.62951
3119.55 3.78598
3119.85 5.91908
3120.00 7.71506
3120.15 10.4463
3120.30 14.8951
3120.38 18.1814
3120.45 22.6034
3120.53 28.6881
3120.60 37.2403
3120.68 49.4380
3120.75 66.7423
3120.88 107.025
3121.00 133.620
3121.06 125.681
3121.12 106.670
3121.25 66.7333
3121.33 47.7256
3121.41 35.0233
3121.50 26.4253
3121.58 20.4825
3121.75 13.1533
3121.91 9.10548
3122.08 6.64000
3122.25 5.05430
3122.58 3.19778
3122.91 2.20172
3123.25 1.60771
3123.91 0.966438
3124.58 0.645414
3125.24 0.462467
3125.91 0.348431
3126.57 0.272674
3127.91 0.181140
3129.24 0.130155
3130.57 0.0988335
3131.90 0.0782627
3134.56 0.0538174
3137.23 0.0405529
3142.55 0.0281813
3147.88 0.0250567
3150.54 0.0265119
3153.20 0.0313993
3155.87 0.0440231
3158.53 0.0818674
3159.86 0.134406
3160.53 0.186213
3161.19 0.278985
3161.86 0.471152
3162.19 0.655335
3162.52 0.976296
3162.86 1.61125
3163.02 2.19334
3163.19 3.14941
3163.36 4.90281
3163.44 6.36272
3163.52 8.56232
3163.61 12.0692
3163.69 18.0597
3163.77 29.1117
3163.86 50.5091
3163.93 80.9650
3164.00 100.871
3164.07 80.5209
3164.15 50.5102
3164.22 30.0399
3164.30 19.0501
3164.38 12.9193
3164.46 9.29505
3164.53 6.95369
3164.61 5.40140
3164.77 3.50810
3164.92 2.45055
3165.08 1.81008
3165.39 1.10279
3165.70 0.741490
3166.01 0.533868
3166.63 0.316037
3167.25 0.209993
3167.87 0.150691
3169.11 0.0900042
3170.35 0.0611386
3171.59 0.0451865
3174.08 0.0290363
3179.04 0.0173150
3184.01 0.0135424
3188.97 0.0129580
3193.94 0.0164229
3196.42 0.0225933
3198.90 0.0408074
3200.14 0.0660246
3201.38 0.135383
3202.00 0.227594
3202.31 0.315822
3202.62 0.469462
3202.94 0.774509
3203.09 1.05235
3203.25 1.51119
3203.40 2.34662
3203.48 3.05088
3203.56 4.09861
3203.63 5.79224
3203.71 8.64920
3203.79 13.9956
3203.87 24.2132
3203.93 38.7671
3204.00 48.2453
3204.07 38.5398
3204.14 24.0359
3204.19 16.6131
3204.24 11.8892
3204.29 8.79837
3204.34 6.71911
3204.44 4.21939
3204.54 2.88346
3204.64 2.08183
3204.74 1.57512
3204.94 0.990110
3205.14 0.678108
3205.34 0.493621
3205.74 0.296153
3206.14 0.197912
3206.55 0.142318
3207.35 0.0848168
3208.95 0.0418331
3210.56 0.0262067
3213.77 0.0146770
3216.98 0.0104669
3229.82 0.00603120
3242.66 0.00505288
3255.50 0.00478006
3268.34 0.00499166
3281.18 0.00622702
3287.60 0.00812593
3294.02 0.0136233
3297.23 0.0212785
3300.44 0.0428163
3302.04 0.0723324
3302.85 0.101468
3303.65 0.153856
3304.45 0.263200
3304.85 0.368805
3305.25 0.554653
3305.66 0.929540
3305.86 1.27856
3306.06 1.86367
3306.26 2.96803
3306.36 3.91759
3306.46 5.39494
3306.56 7.89144
3306.66 12.4199
3306.71 16.1703
3306.76 21.6824
3306.81 29.9823
3306.86 42.4802
3306.93 68.1002
3307.00 84.8357
3307.07 67.7163
3307.14 42.4813
3307.21 26.7661
3307.28 17.7036
3307.34 12.3590
3307.41 9.03847
3307.54 5.37718
3307.68 3.54046
3307.81 2.49983
3307.95 1.85649
3308.21 1.13795
3308.48 0.767938
3308.75 0.553058
3309.29 0.326392
3309.82 0.215664
3310.36 0.153462
3311.43 0.0897591
3313.57 0.0427336
3315.72 0.0258535
3320.00 0.0135944
3324.29 0.00925587
3332.87 0.00615765
3341.44 0.00510713
3358.59 0.00447919
3375.74 0.00445127
3410.03 0.00510745
3444.33 0.00672429
3478.63 0.0103768
3495.78 0.0140365
3512.93 0.0206837
3521.50 0.0262571
3530.08 0.0347273
3538.65 0.0485254
3547.22 0.0732995
3551.51 0.0938658
3555.80 0.124814
3560.09 0.174541
3564.37 0.262010
3566.52 0.333104
3568.66 0.437825
3570.80 0.601360
3572.95 0.876974
3574.02 1.09171
3575.09 1.39547
3576.16 1.84422
3577.23 2.54390
3578.31 3.71733
3578.84 4.62011
3579.38 5.87499
3579.91 7.67321
3580.45 10.3320
3580.99 14.3653
3581.52 20.4746
3582.26 32.6955
3583.00 40.8136
3583.74 32.6842
3584.48 20.4695
3585.28 12.1869
3586.07 7.74605
3586.87 5.27876
3587.67 3.82501
3588.46 2.93792
3589.26 2.45487
3589.66 2.40472
3590.06 2.67272
3590.26 3.13288
3590.46 4.25094
3590.56 5.42558
3590.65 7.55354
3590.75 11.8969
3590.80 15.7308
3590.85 21.2831
3590.93 33.2917
3591.00 41.1553
3591.07 33.0702
3591.15 21.1871
3591.24 12.3912
3591.33 8.00549
3591.41 5.68077
3591.50 4.34620
3591.68 2.93542
3591.86 2.25305
3592.21 1.61195
3592.57 1.30949
3593.28 1.00300
3593.99 0.832135
3595.41 0.625574
3596.83 0.496811
3599.67 0.341712
3602.50 0.254838
3605.34 0.205638
3608.18 0.190551
3609.60 0.208359
3610.31 0.233988
3611.02 0.285664
3611.73 0.400028
3612.09 0.512855
3612.44 0.712542
3612.80 1.11341
3612.97 1.48515
3613.15 2.10267
3613.33 3.25253
3613.42 4.23211
3613.51 5.71450
3613.60 8.15858
3613.68 12.4179
3613.77 20.7527
3613.82 27.7437
3613.86 37.7722
3613.93 60.2865
3614.00 75.2587
3614.07 60.2861
3614.14 37.7714
3614.21 23.9249
3614.27 15.9926
3614.34 11.2059
3614.40 8.26214
3614.53 4.96890
3614.66 3.31827
3614.79 2.37112
3614.93 1.78452
3615.19 1.12971
3615.45 0.789836
3615.71 0.592451
3616.23 0.382353
3616.76 0.278435
3617.28 0.219079
3618.32 0.156349
3620.42 0.105928
3622.51 0.0849119
3624.60 0.0743974
3626.69 0.0722853
3628.78 0.0996740
3629.31 0.131066
3629.83 0.215215
3630.09 0.321207
3630.35 0.574096
3630.48 0.857509
3630.62 1.44006
3630.68 1.99128
3630.75 2.89560
3630.81 4.49669
3630.88 7.42972
3630.94 11.8350
3631.00 14.7622
3631.06 11.8349
3631.12 7.42941
3631.20 4.21272
3631.27 2.59332
3631.35 1.73198
3631.42 1.23936
3631.57 0.722738
3631.71 0.480121
3632.01 0.266279
3632.30 0.178064
3632.89 0.107425
3633.48 0.0799614
3635.84 0.0490785
3640.56 0.0361003
3650.00 0.0272858
3659.44 0.0254416
3664.16 0.0335894
3665.34 0.0425697
3666.51 0.0673593
3667.10 0.100314
3667.69 0.186968
3667.99 0.295995
3668.28 0.560601
3668.43 0.863143
3668.58 1.49625
3668.65 2.11051
3668.73 3.14985
3668.80 5.10788
3668.87 8.88202
3668.94 14.2663
3669.00 17.7907
3669.06 14.1767
3669.13 8.88233
3669.17 6.26938
3669.22 4.56822
3669.31 2.63533
3669.39 1.68603
3669.48 1.16947
3669.66 0.652924
3669.84 0.419581
3670.19 0.220252
3670.55 0.140428
3671.26 0.0780087
3671.97 0.0548121
3674.80 0.0326301
3680.48 0.0362674
3683.32 0.0501810
3686.16 0.0915316
3687.57 0.148468
3688.28 0.204429
3688.99 0.304338
3689.70 0.510366
3690.06 0.706944
3690.41 1.04652
3690.77 1.71421
3690.95 2.32080
3691.12 3.30801
3691.30 5.09195
3691.39 6.56581
3691.48 8.72918
3691.57 12.1490
3691.65 17.7608
3691.74 27.8111
3691.83 46.0037
3691.92 73.6480
3692.00 91.7376
3692.09 73.3012
3692.17 45.7333
3692.26 27.8120
3692.34 18.0124
3692.43 12.3961
3692.52 8.97632
3692.60 6.77029
3692.69 5.27556
3692.86 3.45039
3693.03 2.42701
3693.20 1.79871
3693.55 1.10143
3693.89 0.743713
3694.24 0.537482
3694.92 0.320583
3695.61 0.214787
3696.30 0.155549
3697.68 0.0949359
3700.43 0.0502019
3703.18 0.0341790
3708.69 0.0227256
3714.20 0.0190594
3725.21 0.0181169
3736.22 0.0216270
3747.24 0.0316654
3752.75 0.0421973
3758.25 0.0615674
3761.01 0.0778651
3763.76 0.102608
3766.51 0.142783
3769.27 0.214329
3770.64 0.273183
3772.02 0.360906
3773.40 0.499915
3774.77 0.739142
3776.15 1.20419
3776.84 1.62044
3777.53 2.29388
3777.87 2.79912
3778.21 3.48531
3778.56 4.45017
3778.90 5.85993
3779.25 8.01578
3779.59 11.4896
3779.93 17.3898
3780.28 27.6446
3780.64 44.2250
3781.00 55.2736
3781.36 44.2151
3781.72 27.6349
3781.97 19.6011
3782.23 14.2516
3782.48 10.6741
3782.73 8.22608
3783.23 5.25216
3783.73 3.61498
3784.23 2.62867
3784.74 1.99480
3785.74 1.25854
3786.75 0.864898
3787.75 0.631136
3788.75 0.481044
3789.76 0.379267
3791.77 0.254046
3793.78 0.183124
3795.79 0.139358
3797.79 0.110773
3801.81 0.0785492
3805.83 0.0675936
3807.84 0.0724758
3809.85 0.0984578
3810.85 0.137921
3811.86 0.247897
3812.36 0.393332
3812.61 0.531116
3812.86 0.768275
3813.11 1.22825
3813.24 1.64148
3813.36 2.30342
3813.49 3.47856
3813.62 5.79233
3813.68 7.89715
3813.74 11.2756
3813.80 16.9795
3813.87 26.6053
3813.93 42.4781
3814.00 53.0324
3814.07 42.4785
3814.13 26.6061
3814.20 16.1820
3814.27 10.4954
3814.34 7.23410
3814.41 5.24766
3814.48 3.95083
3814.54 3.08711
3814.68 2.03173
3814.82 1.43627
3814.95 1.07383
3815.23 0.670424
3815.50 0.464451
3815.77 0.345722
3816.32 0.222215
3817.41 0.133006
3818.50 0.110359
3819.59 0.121294
3820.68 0.189187
3821.23 0.288460
3821.50 0.384818
3821.77 0.551889
3822.05 0.880644
3822.18 1.17881
3822.32 1.66127
3822.46 2.52871
3822.52 3.23425
3822.59 4.27369
3822.66 5.88083
3822.73 8.50975
3822.80 13.0679
3822.86 21.1972
3822.93 33.8522
3823.00 42.2707
3823.07 33.8520
3823.14 21.1968
3823.19 14.0868
3823.25 9.76914
3823.31 7.06200
3823.36 5.30077
3823.47 3.25639
3823.59 2.19811
3823.70 1.57717
3823.81 1.18998
3824.04 0.749150
3824.26 0.517100
3824.48 0.381348
3824.93 0.235980
3825.83 0.122943
3826.73 0.0801434
3828.53 0.0471271
3830.32 0.0342716
3833.91 0.0236568
3837.51 0.0191432
3841.10 0.0169257
3844.69 0.0166031
3848.28 0.0230108
3850.08 0.0507581
3850.98 0.146416
3851.20 0.230653
3851.43 0.424893
3851.54 0.635919
3851.65 1.04604
3851.76 1.98511
3851.82 2.93216
3851.87 4.51815
3851.94 7.22094
3852.00 9.02237
3852.06 7.22101
3852.13 4.51823
3852.20 2.53655
3852.28 1.54795
3852.43 0.727598
3852.58 0.417945
3852.73 0.271745
3853.03 0.143479
3853.34 0.0909924
3854.55 0.0333318
3856.97 0.0167828
3861.81 0.0121608
3866.65 0.0115606
3871.49 0.0123669
3876.33 0.0153102
3881.17 0.0248214
3883.59 0.0383580
3886.01 0.0764517
3887.22 0.128271
3887.82 0.178961
3888.43 0.269331
3889.03 0.454691
3889.33 0.631137
3889.64 0.934605
3889.94 1.52797
3890.09 2.05951
3890.24 2.92185
3890.39 4.45058
3890.47 5.70462
3890.54 7.51958
3890.62 10.3476
3890.69 14.8754
3890.77 22.7471
3890.85 36.4059
3890.92 58.3774
3891.00 72.7669
3891.08 58.0771
3891.16 36.4064
3891.24 22.0809
3891.32 14.2021
3891.40 9.72443
3891.48 7.01541
3891.56 5.27619
3891.64 4.10201
3891.80 2.67364
3891.96 1.87574
3892.12 1.38712
3892.43 0.847339
3892.75 0.570532
3893.07 0.410662
3893.71 0.243019
3894.35 0.161315
3894.99 0.115598
3896.27 0.0688110
3898.83 0.0342968
3901.39 0.0218711
3906.50 0.0127558
3911.62 0.00944639
3921.85 0.00695838
3932.08 0.00603070
3952.54 0.00540974
3973.00 0.00542438
3993.46 0.00590323
4013.92 0.00723048
4024.15 0.00882157
4034.38 0.0128433
4039.49 0.0180973
4044.61 0.0324827
4047.17 0.0520585
4049.72 0.106314
4051.00 0.179791
4051.64 0.251668
4052.28 0.379593
4052.92 0.642553
4053.24 0.892691
4053.56 1.32326
4053.88 2.16594
4054.04 2.92486
4054.20 4.15017
4054.36 6.34186
4054.44 8.13306
4054.52 10.7709
4054.60 14.8472
4054.68 21.5099
4054.76 33.0478
4054.84 53.2494
4054.92 85.4351
4055.00 106.551
4055.08 85.0110
4055.16 53.2499
4055.21 38.4892
4055.27 28.5514
4055.37 16.9542
4055.48 10.9764
4055.58 7.64723
4055.68 5.59550
4055.79 4.27316
4056.00 2.71841
4056.21 1.87486
4056.41 1.37038
4056.83 0.824826
4057.25 0.550935
4057.67 0.395065
4058.50 0.233156
4059.34 0.155139
4060.17 0.111775
4061.84 0.0679020
4065.18 0.0363551
4068.52 0.0260808
4071.86 0.0230858
4075.19 0.0263607
4076.86 0.0336374
4078.53 0.0554680
4079.37 0.0854769
4080.20 0.166567
4080.62 0.272141
4081.04 0.539593
4081.25 0.862188
4081.45 1.59143
4081.56 2.36633
4081.66 3.82943
4081.72 5.09178
4081.77 7.02285
4081.82 10.0831
4081.87 15.0206
4081.94 24.0653
4082.00 30.0188
4082.06 24.0656
4082.13 15.0210
4082.20 8.79437
4082.27 5.49822
4082.34 3.69475
4082.42 2.63232
4082.56 1.51745
4082.70 0.982917
4082.99 0.509603
4083.28 0.313355
4083.86 0.156702
4084.43 0.0969044
4085.58 0.0517073
4086.74 0.0351791
4091.34 0.0187858
4100.55 0.0155255
4109.77 0.0167204
4118.98 0.0196821
4128.19 0.0249541
4137.40 0.0355559
4142.01 0.0466956
4146.62 0.0725010
4148.92 0.104422
4150.07 0.134794
4151.22 0.188476
4152.38 0.299396
4152.95 0.406541
4153.53 0.595399
4154.10 0.978998
4154.39 1.33962
4154.68 1.95528
4154.97 3.13540
4155.11 4.17766
4155.25 5.83930
4155.40 8.71014
4155.54 14.2418
4155.61 19.0797
4155.69 26.5797
4155.76 38.6677
4155.83 58.0108
4155.92 92.9436
4156.00 115.845
4156.09 92.5104
4156.17 58.0118
4156.25 36.6140
4156.33 24.3711
4156.41 17.0987
4156.49 12.5554
4156.65 7.49700
4156.81 4.96684
4156.97 3.52085
4157.13 2.63134
4157.45 1.63509
4157.78 1.11972
4158.10 0.820601
4158.74 0.506028
4159.38 0.352861
4160.02 0.267716
4161.30 0.182339
4162.59 0.144068
4163.87 0.125214
4166.43 0.112360
4171.57 0.126416
4176.70 0.175227
4181.83 0.282715
4184.39 0.384442
4186.96 0.556700
4188.24 0.691132
4189.52 0.881402
4190.81 1.16258
4192.09 1.60102
4193.37 2.33592
4194.01 2.90151
4194.66 3.68598
4195.30 4.81101
4195.94 6.47011
4196.58 8.98307
4197.22 12.7924
4198.11 20.4478
4199.00 25.5407
4199.89 20.4369
4200.78 12.7818
4201.48 8.71941
4202.17 6.13435
4202.87 4.48025
4203.56 3.38737
4204.95 2.10719
4206.34 1.42750
4207.73 1.02781
4209.12 0.774545
4211.90 0.485129
4214.68 0.332812
4217.46 0.243222
4223.02 0.147737
4228.58 0.100884
4234.13 0.0747584
4245.25 0.0491674
4256.37 0.0397660
4267.49 0.0417925
4273.05 0.0512535
4275.83 0.0617463
4278.61 0.0814449
4281.39 0.123799
4282.78 0.165659
4284.16 0.240844
4284.86 0.303234
4285.55 0.396986
4286.25 0.547192
4286.94 0.809557
4287.64 1.33263
4287.99 1.81476
4288.33 2.61559
4288.68 4.09761
4288.86 5.35557
4289.03 7.26598
4289.20 10.3893
4289.29 12.7241
4289.38 15.8425
4289.46 20.2067
4289.55 26.3935
4289.64 35.3061
4289.72 47.9085
4289.86 76.6377
4290.00 95.7883
4290.07 90.0771
4290.14 76.6330
4290.28 47.9037
4290.37 35.1797
4290.45 26.3054
4290.63 15.8398
4290.80 10.3872
4290.97 7.27807
4291.15 5.35415
4291.32 4.10232
4291.66 2.62378
4292.01 1.81931
4292.36 1.33758
4293.05 0.813336
4293.74 0.549546
4294.43 0.398977
4295.13 0.304843
4295.82 0.242294
4297.20 0.166842
4298.59 0.124915
4301.36 0.0826042
4304.13 0.0630510
4306.90 0.0527609
4312.44 0.0437855
4323.52 0.0430013
4334.60 0.0541868
4345.68 0.0827433
4351.22 0.111280
4356.76 0.161781
4362.30 0.263128
4365.07 0.356897
4366.46 0.424555
4367.84 0.513976
4369.23 0.635482
4370.61 0.806222
4372.00 1.05627
4373.38 1.44196
4374.07 1.71766
4374.77 2.07739
4375.46 2.55859
4376.15 3.21630
4376.84 4.14209
4377.54 5.47601
4378.23 7.44259
4378.92 10.3262
4379.96 16.5149
4381.00 20.6368
4382.04 16.5053
4383.08 10.3171
4383.86 7.14416
4384.64 5.08811
4385.42 3.75151
4386.20 2.85735
4387.75 1.79652
4389.31 1.22602
4390.87 0.888187
4392.43 0.672975
4395.54 0.425846
4398.66 0.295429
4401.78 0.218699
4408.01 0.137426
4414.24 0.0985040
4420.47 0.0780915
4432.94 0.0633451
4445.40 0.0713590
4451.63 0.0866487
4457.86 0.117137
4464.10 0.181752
4467.21 0.242846
4470.33 0.346380
4473.44 0.541247
4475.00 0.709609
4476.56 0.971658
4478.12 1.40875
4479.68 2.20635
4480.45 2.86580
4481.23 3.83340
4482.01 5.28731
4482.79 7.46791
4483.90 11.9312
4485.00 14.8999
4486.11 11.9238
4487.21 7.46051
4488.17 4.88791
4489.13 3.33350
4490.09 2.38025
4491.04 1.77059
4492.96 1.07929
4494.88 0.723365
4496.79 0.518418
4498.71 0.390572
4502.54 0.247088
4506.37 0.174369
4510.21 0.136836
4512.12 0.129467
4514.04 0.137799
4515.00 0.159511
4515.95 0.226527
4516.43 0.317400
4516.91 0.553694
4517.15 0.844564
4517.39 1.51965
4517.51 2.25340
4517.63 3.70412
4517.69 5.00807
4517.75 7.08705
4517.81 10.5667
4517.87 16.4519
4517.94 26.3074
4518.00 32.8264
4518.07 26.3074
4518.13 16.4518
4518.18 11.0287
4518.24 7.69201
4518.29 5.55964
4518.34 4.19886
4518.45 2.61208
4518.56 1.78776
4518.77 0.999610
4518.98 0.652975
4519.41 0.364260
4519.84 0.250807
4520.69 0.163553
4521.54 0.132273
4523.25 0.114657
4524.95 0.122201
4526.66 0.157393
4527.51 0.196416
4528.36 0.268465
4529.21 0.418978
4529.64 0.562454
4530.07 0.809915
4530.49 1.29183
4530.71 1.72198
4530.92 2.41628
4531.13 3.63742
4531.35 6.05722
4531.45 8.25030
4531.56 11.7229
4531.67 17.6127
4531.77 27.6086
4531.89 44.1740
4532.00 55.0678
4532.12 44.0187
4532.23 27.4872
4532.33 17.7551
4532.44 12.0181
4532.54 8.53609
4532.64 6.32554
4532.84 3.82783
4533.05 2.55763
4533.25 1.82563
4533.46 1.37163
4533.87 0.859835
4534.27 0.593321
4534.68 0.437652
4535.50 0.272447
4536.32 0.190815
4537.14 0.144498
4538.77 0.0960972
4542.04 0.0584628
4545.31 0.0434345
4551.85 0.0303355
4558.39 0.0241561
4571.47 0.0179444
4584.54 0.0149383
4597.62 0.0135827
4610.70 0.0138556
4623.78 0.0196742
4627.05 0.0258129
4630.32 0.0429216
4631.95 0.0662475
4633.59 0.130501
4634.40 0.216577
4634.81 0.299804
4635.22 0.445869
4635.63 0.740143
4635.83 1.01294
4636.04 1.47201
4636.24 2.33826
4636.35 3.08305
4636.45 4.24166
4636.55 6.17389
4636.65 9.70084
4636.70 12.6189
4636.75 16.9044
4636.80 23.3544
4636.86 33.2781
4636.93 53.2605
4637.00 66.5609
4637.07 53.2607
4637.14 33.2786
4637.23 19.3626
4637.31 12.1519
4637.39 8.18646
4637.47 5.84107
4637.55 4.34427
4637.63 3.36004
4637.79 2.17577
4637.95 1.51804
4638.11 1.12108
4638.43 0.683277
4638.75 0.461270
4639.07 0.333605
4639.71 0.200140
4641.00 0.0993998
4642.28 0.0626969
4644.85 0.0359575
4647.41 0.0266933
4652.55 0.0207384
4657.68 0.0196718
4667.95 0.0223047
4678.22 0.0299950
4683.36 0.0368700
4688.49 0.0474547
4693.63 0.0646978
4698.76 0.0953013
4703.90 0.157285
4706.46 0.215248
4709.03 0.313406
4711.60 0.499252
4712.88 0.661144
4714.17 0.915252
4715.45 1.34531
4716.73 2.14631
4717.38 2.82378
4718.02 3.83941
4718.66 5.40759
4719.30 7.83376
4720.15 12.5457
4721.00 15.6906
4721.85 12.5401
4722.70 7.82830
4723.31 5.50720
4723.91 3.97500
4724.52 2.96059
4725.13 2.27196
4726.34 1.44189
4727.55 0.989133
4728.76 0.718078
4729.98 0.544287
4732.40 0.343149
4734.82 0.236009
4737.25 0.172462
4742.10 0.104093
4746.95 0.0700879
4751.80 0.0507654
4756.64 0.0387493
4761.49 0.0307741
4771.19 0.0211874
4780.89 0.0158813
4800.29 0.0105984
4819.68 0.00832222
4839.08 0.00746741
4858.47 0.00805220
4868.17 0.0111168
4873.02 0.0222730
4875.45 0.0635303
4876.05 0.103525
4876.66 0.208561
4876.96 0.340575
4877.26 0.660518
4877.42 1.02569
4877.57 1.78850
4877.64 2.52700
4877.72 3.79679
4877.79 6.16206
4877.87 10.7763
4877.94 17.2535
4878.00 21.5453
4878.07 17.2536
4878.13 10.7765
4878.18 7.68932
4878.22 5.63870
4878.31 3.27732
4878.40 2.10233
4878.49 1.45221
4878.66 0.806519
4878.84 0.511627
4879.20 0.259742
4879.55 0.158515
4880.27 0.0790498
4880.98 0.0492678
4883.82 0.0190726
4889.51 0.0116247
4895.21 0.0108576
4900.90 0.0113073
4912.28 0.0139507
4923.67 0.0194526
4929.36 0.0241704
4935.05 0.0313592
4940.74 0.0430161
4946.43 0.0636831
4952.13 0.105590
4954.97 0.144868
4957.82 0.211629
4960.66 0.338653
4962.09 0.449929
4963.51 0.625805
4964.93 0.925867
4965.64 1.16102
4966.36 1.49287
4967.07 1.97925
4967.78 2.71726
4968.49 3.87615
4969.20 5.70757
4970.10 9.12795
4971.00 11.4055
4971.90 9.12381
4972.80 5.70356
4973.65 3.60239
4974.50 2.38750
4975.35 1.66938
4976.20 1.22246
4977.90 0.728867
4979.60 0.480874
4981.30 0.340240
4983.00 0.253247
4986.40 0.156044
4989.80 0.105981
4993.20 0.0769174
4996.60 0.0585896
5000.00 0.0463138
5005.73 0.0332263
5011.47 0.0253961
5022.93 0.0174319
5028.67 0.0160141
5034.40 0.0173221
5040.13 0.0325873
5041.57 0.0490917
5043.00 0.0950476
5043.72 0.156703
5044.43 0.320342
5044.79 0.529553
5045.15 1.04553
5045.33 1.64583
5045.51 2.94909
5045.60 4.25821
5045.69 6.57214
5045.78 11.2011
5045.82 15.2257
5045.86 21.1028
5045.93 33.6777
5046.00 42.1936
5046.07 33.6779
5046.14 21.1032
5046.21 12.4557
5046.28 7.84913
5046.36 5.30130
5046.43 3.80492
5046.58 2.19786
5046.73 1.42707
5047.02 0.737554
5047.32 0.450354
5047.91 0.220382
5048.49 0.132471
5049.67 0.0657418
5050.85 0.0412591
5053.21 0.0231040
5055.57 0.0164870
5060.29 0.0115496
5065.00 0.00982907
5074.44 0.0103312
5079.16 0.0177902
5081.51 0.0463280
5082.10 0.0740200
5082.69 0.146552
5082.99 0.237795
5083.28 0.458954
5083.43 0.711447
5083.58 1.23882
5083.65 1.74942
5083.73 2.61142
5083.80 4.23002
5083.87 7.36550
5083.94 11.7617
5084.00 14.7233
5084.06 11.7618
5084.13 7.36571
5084.18 4.88832
5084.24 3.35466
5084.34 1.80379
5084.45 1.10170
5084.56 0.740853
5084.77 0.398969
5084.99 0.249826
5085.42 0.126592
5085.85 0.0784056
5087.56 0.0280787
5091.00 0.0177834
5094.44 0.0344680
5095.30 0.0534145
5096.15 0.105141
5096.58 0.172709
5097.01 0.344574
5097.23 0.552810
5097.44 1.03013
5097.55 1.54022
5097.66 2.51412
5097.77 4.67935
5097.82 6.82057
5097.87 10.2794
5097.94 16.4171
5098.00 20.5520
5098.06 16.4172
5098.13 10.2796
5098.17 7.18459
5098.22 5.17267
5098.31 2.94714
5098.40 1.86807
5098.50 1.28057
5098.68 0.704869
5098.86 0.444953
5099.23 0.224740
5099.60 0.136618
5100.34 0.0678589
5101.07 0.0421191
5104.02 0.0158261
5109.91 0.00884517
5121.69 0.00750798
5133.47 0.00842915
5145.25 0.0109697
5157.03 0.0169036
5162.92 0.0229230
5168.81 0.0339135
5171.76 0.0431497
5174.70 0.0571883
5177.65 0.0800378
5180.59 0.120955
5182.06 0.154808
5183.54 0.205524
5185.01 0.286597
5186.48 0.427816
5187.95 0.707627
5188.69 0.963314
5189.43 1.38634
5190.16 2.16018
5190.53 2.80891
5190.90 3.78982
5191.27 5.36150
5191.64 8.06562
5191.82 10.1750
5192.00 13.1082
5192.19 17.2386
5192.37 23.0175
5192.69 36.8479
5193.00 46.0266
5193.32 36.7959
5193.63 23.0125
5193.88 15.5404
5194.13 10.8446
5194.39 7.87150
5194.64 5.92940
5195.14 3.66255
5195.64 2.46984
5196.15 1.77103
5196.65 1.33055
5197.66 0.828316
5198.66 0.564485
5199.67 0.409485
5200.68 0.310896
5201.68 0.244459
5203.70 0.163269
5205.71 0.117735
5207.72 0.0899482
5209.74 0.0721338
5213.76 0.0535087
5217.79 0.0524255
5219.80 0.0639455
5221.82 0.104310
5222.82 0.161836
5223.83 0.318916
5224.33 0.523824
5224.59 0.716406
5224.84 1.04279
5225.09 1.66722
5225.21 2.21557
5225.34 3.07555
5225.47 4.55564
5225.59 7.36288
5225.65 9.77783
5225.72 13.4602
5225.78 19.2689
5225.84 28.3293
5225.92 45.3062
5226.00 56.6439
5226.08 45.3060
5226.16 28.3292
5226.21 20.9732
5226.26 15.7111
5226.35 9.50299
5226.45 6.22518
5226.55 4.37323
5226.65 3.21941
5226.74 2.47091
5226.94 1.58451
5227.13 1.10009
5227.33 0.810243
5227.71 0.493544
5228.10 0.333833
5228.49 0.242632
5229.27 0.147415
5230.83 0.0751579
5232.39 0.0482788
5235.50 0.0276603
5238.61 0.0195706
5244.84 0.0127265
5251.07 0.00966509
5263.52 0.00683638
5275.98 0.00569241
5288.43 0.00552118
5300.89 0.00683069
5307.12 0.00909630
5313.34 0.0156289
5316.46 0.0245588
5319.57 0.0491809
5321.13 0.0823399
5322.69 0.172113
5323.46 0.289839
5323.85 0.401371
5324.24 0.593536
5324.63 0.967140
5324.83 1.30318
5325.02 1.84476
5325.22 2.80810
5325.31 3.58682
5325.41 4.72562
5325.51 6.49174
5325.60 9.32121
5325.70 14.1424
5325.80 22.5552
5325.90 36.0704
5326.00 45.0741
5326.10 36.0699
5326.20 22.5552
5326.28 15.8147
5326.35 11.3758
5326.42 8.44946
5326.49 6.46999
5326.64 4.09442
5326.79 2.80899
5326.93 2.03547
5327.08 1.54018
5327.37 0.969714
5327.66 0.665369
5327.95 0.485644
5328.53 0.292257
5329.70 0.142101
5330.87 0.0865543
5333.20 0.0470997
5335.53 0.0368066
5337.86 0.0402401
5340.19 0.0659613
5341.36 0.104928
5342.52 0.213611
5343.11 0.357549
5343.40 0.494972
5343.69 0.731810
5343.98 1.19627
5344.13 1.61526
5344.27 2.29227
5344.42 3.50649
5344.49 4.50104
5344.56 5.94427
5344.64 8.20449
5344.71 11.9102
5344.78 18.3563
5344.85 29.8617
5344.93 47.6676
5345.00 59.7130
5345.07 47.6677
5345.15 29.8620
5345.22 18.4737
5345.29 12.0423
5345.36 8.32232
5345.43 6.04327
5345.51 4.56688
5345.58 3.56348
5345.72 2.33460
5345.87 1.64361
5346.01 1.21857
5346.30 0.746057
5346.59 0.503755
5346.87 0.363392
5347.45 0.215605
5348.60 0.102945
5349.75 0.0613355
5352.06 0.0303562
5354.36 0.0190166
5363.57 0.00729066
5382.00 0.00401263
5400.43 0.00464239
5409.65 0.0100826
5414.25 0.0316881
5415.41 0.0533439
5416.56 0.112408
5417.13 0.190265
5417.71 0.392868
5418.00 0.644421
5418.29 1.24309
5418.43 1.90828
5418.57 3.26638
5418.65 4.53054
5418.72 6.62239
5418.79 10.3091
5418.86 17.0137
5418.93 27.1506
5419.00 34.0262
5419.07 27.1507
5419.14 17.0139
5419.20 11.2453
5419.26 7.75767
5419.32 5.55428
5419.37 4.15637
5419.49 2.53980
5419.61 1.70536
5419.84 0.910569
5420.07 0.564826
5420.54 0.277824
5421.01 0.165296
5421.94 0.0784667
5422.87 0.0462988
5424.74 0.0224278
5426.61 0.0138293
5434.07 0.00536146
5449.01 0.00340859
5463.94 0.00427730
5471.41 0.00902362
5475.14 0.0273869
5476.07 0.0456787
5477.01 0.0951731
5477.47 0.159938
5477.94 0.325861
5478.17 0.529471
5478.41 1.00087
5478.52 1.51232
5478.64 2.50904
5478.70 3.41660
5478.76 4.83369
5478.81 7.18336
5478.87 11.1835
5478.94 17.9220
5479.00 22.3574
5479.06 17.9222
5479.13 11.1837
5479.18 7.84483
5479.22 5.62213
5479.32 3.19809
5479.41 2.01511
5479.50 1.38023
5479.69 0.755710
5479.88 0.474582
5480.25 0.236947
5480.62 0.142057
5481.37 0.0682205
5482.12 0.0406033
5485.11 0.0125859
5491.09 0.00527744
5503.06 0.00359438
5515.03 0.00356952
5526.99 0.00395821
5538.96 0.00475177
5550.92 0.00642116
5556.90 0.00822190
5562.89 0.0124963
5568.87 0.0323328
5570.37 0.0517027
5571.86 0.104504
5572.61 0.174690
5573.36 0.360261
5573.73 0.595644
5574.11 1.17401
5574.29 1.84233
5574.39 2.41392
5574.48 3.27984
5574.57 4.70777
5574.67 7.20077
5574.76 12.0117
5574.81 16.1359
5574.85 21.9467
5574.93 35.1017
5575.00 43.8879
5575.07 35.1018
5575.15 21.9470
5575.21 14.8372
5575.27 10.3696
5575.33 7.49763
5575.39 5.65062
5575.50 3.48701
5575.62 2.34909
5575.74 1.68486
5575.86 1.26581
5576.10 0.788790
5576.58 0.391901
5577.05 0.235458
5578.00 0.114874
5578.95 0.0702464
5580.86 0.0374170
5582.76 0.0259784
5586.57 0.0185975
5590.38 0.0172163
5597.99 0.0200748
5605.60 0.0285168
5609.41 0.0360198
5613.22 0.0475566
5617.02 0.0663907
5620.83 0.100052
5622.73 0.127795
5624.64 0.169188
5626.54 0.234951
5628.44 0.348526
5630.35 0.570464
5631.30 0.770470
5632.25 1.09585
5632.73 1.34095
5633.20 1.67669
5633.68 2.15243
5634.15 2.85277
5634.63 3.94008
5635.11 5.72487
5635.58 8.83496
5635.82 11.2281
5636.06 14.4033
5636.53 23.0517
5637.00 28.7986
5637.47 23.0277
5637.94 14.3993
5638.50 8.13608
5639.06 4.98404
5639.62 3.30412
5640.18 2.33182
5640.74 1.72682
5641.30 1.32765
5642.42 0.853300
5643.53 0.594623
5644.65 0.439188
5646.89 0.272115
5649.13 0.194481
5651.36 0.169255
5652.48 0.184829
5653.60 0.259230
5654.16 0.367926
5654.72 0.654400
5655.00 1.00534
5655.27 1.80871
5655.41 2.66466
5655.55 4.31440
5655.62 5.75734
5655.69 7.99439
5655.76 11.6012
5655.83 17.4603
5655.92 27.9101
5656.00 34.8559
5656.08 27.9087
5656.17 17.4579
5656.26 9.93908
5656.36 6.12220
5656.46 4.08315
5656.56 2.90095
5656.75 1.67756
5656.95 1.09995
5657.34 0.588852
5657.73 0.377805
5658.52 0.207516
5659.30 0.140670
5660.86 0.0866104
5662.43 0.0639156
5665.56 0.0430024
5668.69 0.0325736
5674.95 0.0215760
5681.21 0.0157407
5693.73 0.00976943
5706.25 0.00687053
5718.77 0.00524051
5731.29 0.00423818
5756.34 0.00314125
5781.38 0.00262108
5806.42 0.00238164
5856.51 0.00238122
5906.59 0.00297474
5931.63 0.00365027
5956.67 0.00486482
5981.72 0.00728498
5994.24 0.00949749
6006.76 0.0131673
6019.28 0.0199442
6025.54 0.0257456
6031.80 0.0347748
6038.06 0.0500642
6044.32 0.0796225
6047.45 0.106945
6050.58 0.156144
6052.15 0.201605
6053.71 0.292091
6054.50 0.390214
6055.28 0.620189
6055.67 0.896113
6055.87 1.14513
6056.06 1.55328
6056.26 2.30398
6056.36 2.93859
6056.45 3.89490
6056.55 5.46081
6056.65 8.21139
6056.75 13.5058
6056.80 17.9752
6056.84 24.2712
6056.92 38.7357
6057.00 48.2661
6057.08 38.7431
6057.16 24.2863
6057.24 14.8116
6057.32 9.58757
6057.40 6.64122
6057.48 4.86945
6057.65 2.97751
6057.81 2.06312
6057.98 1.55440
6058.14 1.24785
6058.47 0.920491
6059.12 0.689259
6059.78 0.642181
6061.08 0.728491
6062.39 0.970427
6063.05 1.16558
6063.70 1.43658
6064.36 1.82162
6065.01 2.38642
6065.67 3.25421
6066.32 4.65325
6066.98 7.03721
6067.63 11.1810
6068.32 17.8716
6069.00 22.3303
6069.69 17.8701
6070.37 11.1834
6070.96 7.35148
6071.55 5.03080
6072.14 3.60797
6072.73 2.70015
6073.92 1.68192
6075.10 1.18378
6076.28 0.953125
6077.46 0.971285
6078.05 1.17574
6078.35 1.40442
6078.64 1.81766
6078.94 2.64018
6079.09 3.37747
6079.23 4.55056
6079.38 6.59593
6079.53 10.5069
6079.60 13.9421
6079.68 19.2621
6079.75 27.8238
6079.82 41.6038
6079.91 66.4306
6080.00 82.8278
6080.09 66.4194
6080.18 41.5822
6080.26 26.6515
6080.34 17.9360
6080.42 12.6661
6080.50 9.40263
6080.67 5.74317
6080.83 3.88951
6080.99 2.83112
6081.15 2.17204
6081.48 1.42955
6081.81 1.03879
6082.13 0.806956
6082.78 0.553310
6083.43 0.420642
6084.09 0.340193
6085.39 0.247127
6087.99 0.159378
6090.60 0.115933
6095.81 0.0721838
6101.02 0.0508502
6106.23 0.0392795
6111.44 0.0343103
6114.05 0.0355514
6116.65 0.0447814
6117.95 0.0596098
6119.26 0.102132
6119.91 0.159483
6120.56 0.310832
6120.88 0.501935
6121.21 0.964255
6121.37 1.49165
6121.54 2.60342
6121.62 3.68387
6121.70 5.51903
6121.78 8.92428
6121.86 15.5826
6121.93 24.9136
6122.00 31.1464
6122.07 24.9136
6122.14 15.5826
6122.22 9.15830
6122.30 5.73450
6122.37 3.85817
6122.45 2.76274
6122.61 1.59930
6122.76 1.03948
6123.07 0.542321
6123.38 0.335633
6124.00 0.170226
6124.62 0.106848
6125.86 0.0585954
6127.10 0.0406233
6132.06 0.0214706
6137.02 0.0169172
6141.98 0.0149435
6151.90 0.0136718
6161.82 0.0147796
6171.74 0.0194995
6176.70 0.0248331
6181.66 0.0349045
6184.14 0.0434912
6186.62 0.0566331
6189.10 0.0781399
6191.58 0.116832
6192.82 0.148933
6194.06 0.197174
6195.30 0.274461
6196.54 0.409687
6197.78 0.678924
6198.40 0.926540
6199.02 1.33885
6199.64 2.09903
6199.95 2.74325
6200.26 3.72713
6200.57 5.32566
6200.73 6.51883
6200.88 8.13201
6201.04 10.3647
6201.19 13.5252
6201.35 18.0709
6201.50 24.5770
6201.75 39.3272
6202.00 49.0964
6202.25 39.2605
6202.50 24.5242
6202.77 14.4613
6203.04 9.11700
6203.31 6.15884
6203.59 4.40175
6203.86 3.28832
6204.13 2.54378
6204.67 1.64790
6205.22 1.15096
6205.76 0.848566
6206.85 0.515975
6207.94 0.346832
6209.02 0.249533
6210.11 0.188461
6211.20 0.147647
6213.37 0.0981874
6215.55 0.0705238
6217.72 0.0535075
6219.90 0.0423077
6224.25 0.0289451
6228.60 0.0216024
6237.29 0.0142912
6245.99 0.0110176
6254.69 0.00943125
6272.09 0.00865284
6289.49 0.0101274
6298.19 0.0120217
6306.88 0.0154122
6315.58 0.0220220
6319.93 0.0280096
6324.28 0.0380747
6328.63 0.0577259
6330.81 0.0760618
6332.98 0.107933
6335.15 0.172609
6336.24 0.234347
6337.33 0.342641
6338.42 0.561329
6338.96 0.766366
6339.50 1.11508
6340.05 1.78372
6340.32 2.37395
6340.59 3.31033
6340.86 4.93214
6341.00 6.21780
6341.13 8.05613
6341.27 10.7881
6341.41 15.0239
6341.54 21.8537
6341.68 32.8866
6341.84 52.6885
6342.00 65.7924
6342.08 61.8948
6342.16 52.5567
6342.32 32.8860
6342.42 24.4484
6342.52 18.4764
6342.71 11.2999
6342.90 7.48962
6343.10 5.28962
6343.29 3.91725
6343.48 3.01829
6343.87 1.95061
6344.26 1.36711
6344.64 1.01686
6345.41 0.636008
6346.19 0.445764
6346.96 0.338802
6348.51 0.232884
6350.05 0.189374
6351.60 0.174268
6354.69 0.192968
6357.78 0.280321
6359.32 0.371773
6360.87 0.531821
6362.41 0.841591
6363.19 1.11525
6363.96 1.54958
6364.35 1.86933
6364.73 2.29631
6365.12 2.88367
6365.50 3.71781
6365.89 4.95019
6366.28 6.83433
6366.66 9.82543
6367.05 14.6131
6367.53 23.3741
6368.00 29.1931
6368.48 23.3495
6368.95 14.5922
6369.28 10.4373
6369.60 7.63334
6369.92 5.74398
6370.25 4.44314
6370.90 2.85256
6371.54 1.97121
6372.19 1.43870
6372.84 1.09454
6374.14 0.693680
6375.43 0.478519
6376.73 0.350284
6379.32 0.211520
6381.91 0.142052
6384.50 0.102356
6387.09 0.0775411
6389.68 0.0609858
6394.86 0.0409361
6400.05 0.0297065
6405.23 0.0227948
6410.41 0.0182587
6420.77 0.0129871
6431.14 0.0106360
6436.32 0.0105620
6441.50 0.0124178
6446.68 0.0256781
6449.28 0.0776591
6449.92 0.128530
6450.57 0.262844
6450.90 0.432609
6451.22 0.847239
6451.38 1.32272
6451.54 2.33485
6451.62 3.32165
6451.71 5.04017
6451.79 8.30238
6451.83 10.9793
6451.87 14.8131
6451.93 23.6619
6452.00 29.6204
6452.07 23.6620
6452.13 14.8133
6452.21 8.35863
6452.29 5.09743
6452.37 3.36923
6452.45 2.38257
6452.61 1.35585
6452.77 0.870701
6453.09 0.444932
6453.41 0.270680
6454.04 0.132194
6454.68 0.0796590
6457.23 0.0255080
6462.32 0.0109150
6472.50 0.00711619
6482.69 0.00755940
6487.78 0.0117481
6490.33 0.0273236
6491.60 0.0823326
6492.24 0.257076
6492.56 0.706851
6492.71 1.53953
6492.79 2.57292
6492.87 4.70336
6492.94 7.52861
6493.00 9.40025
6493.06 7.52868
6493.13 4.70347
6493.23 2.22723
6493.33 1.21966
6493.53 0.513309
6493.93 0.176526
6494.74 0.0563941
6496.34 0.0205251
6499.56 0.0113530
6505.99 0.0120539
6512.43 0.0270592
6514.04 0.0419394
6515.64 0.0824495
6516.45 0.136374
6517.25 0.279868
6517.65 0.463675
6518.06 0.922396
6518.26 1.46302
6518.46 2.65806
6518.56 3.88272
6518.66 6.10328
6518.71 7.98646
6518.76 10.7116
6518.81 14.8204
6518.86 21.0793
6518.93 33.7729
6519.00 42.1372
6519.07 33.7731
6519.14 21.0797
6519.19 15.4396
6519.23 11.5479
6519.32 6.90224
6519.41 4.50407
6519.50 3.15712
6519.67 1.77829
6519.85 1.13577
6520.20 0.578840
6520.56 0.351993
6521.27 0.173345
6521.97 0.106161
6523.39 0.0566212
6524.81 0.0397848
6527.64 0.0311952
6530.47 0.0354486
6533.30 0.0525784
6536.14 0.105254
6537.55 0.177689
6538.26 0.248488
6538.97 0.374348
6539.68 0.631103
6540.03 0.873474
6540.38 1.28877
6540.74 2.08896
6540.91 2.79941
6541.09 3.93836
6541.27 5.92228
6541.45 9.79518
6541.53 13.2544
6541.62 18.6347
6541.71 27.5866
6541.80 42.5666
6541.90 68.1277
6542.00 85.1493
6542.10 68.1267
6542.20 42.5663
6542.29 27.2031
6542.38 18.2554
6542.47 12.8785
6542.57 9.49040
6542.75 5.70312
6542.93 3.77849
6543.11 2.67446
6543.29 1.99266
6543.66 1.22686
6544.02 0.829591
6544.39 0.598864
6545.12 0.354423
6545.85 0.234717
6546.57 0.167360
6548.03 0.0982651
6550.95 0.0471576
6553.86 0.0288053
6559.69 0.0156446
6565.53 0.0114382
6577.19 0.0129234
6583.02 0.0311699
6584.48 0.0500642
6585.93 0.102084
6586.66 0.171349
6587.39 0.354044
6587.76 0.585193
6588.12 1.14743
6588.30 1.79051
6588.48 3.15489
6588.58 4.48048
6588.67 6.78055
6588.76 11.1254
6588.80 14.7769
6588.85 19.9459
6588.92 31.8351
6589.00 39.8882
6589.08 31.8351
6589.15 19.9461
6589.21 13.9562
6589.26 10.0741
6589.31 7.50393
6589.37 5.75893
6589.48 3.64226
6589.59 2.49961
6589.80 1.37248
6590.02 0.863408
6590.45 0.432033
6590.89 0.259694
6591.75 0.125002
6592.62 0.0746074
6594.36 0.0369576
6596.09 0.0233206
6603.03 0.00984738
6616.91 0.00686560
6630.78 0.00739391
6644.66 0.00954290
6658.54 0.0146095
6665.47 0.0196844
6672.41 0.0288420
6675.88 0.0364715
6679.35 0.0479968
6682.82 0.0666347
6686.29 0.0997761
6688.02 0.127040
6689.76 0.167696
6691.49 0.232305
6693.23 0.343994
6694.96 0.562752
6695.83 0.760287
6696.70 1.08296
6697.13 1.32682
6697.56 1.66188
6698.00 2.13846
6698.43 2.84340
6698.87 3.94548
6699.30 5.76614
6699.52 7.13819
6699.73 8.98588
6699.95 11.4925
6700.17 14.8460
6700.58 23.7518
6701.00 29.6648
6701.42 23.7258
6701.84 14.8252
6702.16 10.1013
6702.49 7.10750
6702.82 5.18699
6703.14 3.92256
6703.80 2.43925
6704.45 1.65159
6705.10 1.18895
6705.75 0.895860
6707.06 0.561170
6708.37 0.385091
6709.67 0.281651
6712.28 0.171890
6714.89 0.118620
6717.51 0.0896935
6720.12 0.0732912
6722.73 0.0644966
6727.95 0.0636569
6730.56 0.0731655
6733.17 0.0953310
6735.79 0.146657
6737.09 0.198211
6738.40 0.290629
6739.05 0.366759
6739.70 0.480069
6740.36 0.659005
6741.01 0.964694
6741.66 1.55281
6741.99 2.07427
6742.31 2.90465
6742.64 4.34779
6742.80 5.49188
6742.97 7.13131
6743.13 9.57453
6743.29 13.3767
6743.46 19.5381
6743.54 24.0172
6743.62 29.6466
6743.71 37.9913
6743.81 47.4257
6744.00 59.2772
6744.10 55.7557
6744.19 47.4229
6744.38 29.6435
6744.50 21.8542
6744.62 16.3952
6744.85 9.91178
6745.09 6.50501
6745.32 4.56595
6745.56 3.36424
6745.80 2.57936
6746.27 1.65055
6746.74 1.14449
6747.21 0.840742
6748.15 0.509439
6749.09 0.342534
6750.03 0.247048
6750.97 0.187285
6751.91 0.147393
6753.80 0.0990312
6755.68 0.0719021
6757.56 0.0551032
6759.44 0.0439568
6763.21 0.0304597
6766.97 0.0228418
6774.50 0.0148797
6782.03 0.0109417
6789.56 0.00868145
6804.62 0.00633113
6819.68 0.00530736
6834.74 0.00510523
6849.80 0.00688874
6857.33 0.0147888
6861.09 0.0451170
6862.03 0.0751555
6862.98 0.156055
6863.45 0.261188
6863.92 0.527755
6864.15 0.850593
6864.39 1.58421
6864.51 2.36262
6864.62 3.83828
6864.68 5.12937
6864.74 7.11981
6864.80 10.3050
6864.86 15.3732
6864.93 24.6434
6865.00 30.7432
6865.07 24.6434
6865.14 15.3734
6865.22 9.28382
6865.29 5.93006
6865.37 4.04113
6865.44 2.91765
6865.59 1.69758
6865.74 1.10631
6866.04 0.573338
6866.34 0.349953
6866.94 0.170351
6867.53 0.101430
6868.73 0.0491958
6869.93 0.0300738
6874.71 0.0110268
6884.27 0.00639460
6903.40 0.00673177
6912.97 0.00868949
6922.53 0.0142620
6927.32 0.0218087
6932.10 0.0425669
6934.49 0.0705063
6935.69 0.0976961
6936.88 0.145907
6938.08 0.244264
6938.68 0.337130
6939.27 0.495986
6939.87 0.802689
6940.17 1.07524
6940.47 1.51259
6940.77 2.27545
6941.07 3.76762
6941.22 5.09924
6941.37 7.18368
6941.51 10.6125
6941.66 16.3410
6941.83 26.1780
6942.00 32.6853
6942.17 26.1146
6942.34 16.3403
6942.51 9.98813
6942.68 6.46149
6942.85 4.44242
6943.02 3.21439
6943.19 2.42298
6943.36 1.88719
6943.71 1.23354
6944.05 0.867394
6944.39 0.642763
6945.07 0.393668
6945.76 0.266259
6946.44 0.192597
6947.81 0.115267
6949.18 0.0776339
6950.54 0.0565859
6953.28 0.0351864
6958.75 0.0197437
6964.22 0.0146132
6975.16 0.0120261
6986.10 0.0129468
6997.05 0.0161924
7007.99 0.0230197
7013.46 0.0291078
7018.93 0.0391813
7021.66 0.0475018
7024.40 0.0620526
7027.13 0.108183
7027.82 0.146639
7028.50 0.243980
7028.84 0.365440
7029.19 0.662632
7029.36 1.00654
7029.53 1.74998
7029.61 2.49394
7029.70 3.80221
7029.78 6.35880
7029.83 8.58081
7029.87 11.7747
7029.93 18.7658
7030.00 23.4732
7030.07 18.7667
7030.13 11.7764
7030.18 8.52106
7030.22 6.27751
7030.31 3.72413
7030.39 2.42186
7030.48 1.70412
7030.66 0.981584
7030.83 0.650255
7031.18 0.367379
7031.53 0.254568
7032.23 0.169399
7032.93 0.141125
7035.73 0.136347
7038.53 0.177012
7041.33 0.256231
7044.13 0.413674
7045.53 0.555322
7046.93 0.784575
7047.63 0.956158
7048.33 1.18980
7049.03 1.51830
7049.73 1.99819
7050.43 2.73182
7051.13 3.91339
7051.83 5.91872
7052.53 9.39401
7053.26 15.0271
7054.00 18.7805
7054.74 15.0232
7055.47 9.39012
7056.06 6.34475
7056.65 4.42980
7057.24 3.21674
7057.83 2.42147
7059.01 1.49714
7060.18 1.00978
7061.36 0.724805
7062.54 0.544803
7064.90 0.339656
7067.25 0.232005
7069.61 0.168739
7071.96 0.128480
7074.32 0.101323
7079.03 0.0681083
7083.74 0.0493977
7088.46 0.0378742
7093.17 0.0303243
7102.59 0.0215315
7112.01 0.0172599
7121.44 0.0171237
7126.15 0.0259713
7128.51 0.0617722
7129.68 0.187485
7129.98 0.300952
7130.27 0.571086
7130.42 0.872183
7130.57 1.48948
7130.71 3.02691
7130.79 4.74744
7130.86 7.89961
7130.93 12.6141
7131.00 15.7873
7131.07 12.6141
7131.14 7.89967
7131.21 4.93901
7131.28 3.24077
7131.41 1.64187
7131.55 0.975617
7131.68 0.645781
7131.95 0.342502
7132.23 0.214190
7133.31 0.0694667
7135.48 0.0272684
7139.82 0.0157610
7148.51 0.0130127
7157.19 0.0142973
7161.53 0.0200571
7163.70 0.0407241
7164.79 0.112261
7165.33 0.331519
7165.60 0.861901
7165.74 1.76831
7165.81 2.79210
7165.87 4.70429
7165.94 7.49931
7166.00 9.39446
7166.06 7.49938
7166.13 4.70439
7166.21 2.54419
7166.29 1.52221
7166.45 0.698674
7166.77 0.256836
7167.41 0.0870036
7168.69 0.0338548
7171.26 0.0193544
7176.39 0.0165227
7186.65 0.0189540
7196.91 0.0247627
7207.17 0.0357981
7212.30 0.0450977
7217.43 0.0591674
7222.56 0.0818479
7227.69 0.121815
7232.82 0.202216
7235.38 0.276984
7237.95 0.403008
7240.51 0.639754
7241.80 0.844488
7243.08 1.16335
7244.36 1.69700
7245.00 2.10639
7245.64 2.67423
7246.28 3.48725
7246.93 4.68380
7247.57 6.49164
7248.21 9.22465
7249.10 14.7569
7250.00 18.4363
7250.90 14.7459
7251.79 9.21524
7252.57 6.03250
7253.35 4.11054
7254.13 2.93196
7254.90 2.17817
7256.46 1.32334
7258.01 0.883075
7259.57 0.629490
7261.12 0.470974
7264.23 0.292123
7267.34 0.199179
7270.44 0.144973
7273.55 0.110700
7276.66 0.0877241
7282.88 0.0599756
7289.09 0.0447896
7295.31 0.0359764
7301.53 0.0309320
7313.96 0.0285575
7320.18 0.0314962
7326.39 0.0393455
7332.61 0.0582676
7335.72 0.0775247
7338.82 0.112344
7340.38 0.141193
7341.93 0.184386
7343.49 0.253155
7345.04 0.372315
7346.59 0.605870
7347.37 0.817060
7348.15 1.16234
7348.93 1.78159
7349.31 2.29242
7349.70 3.04863
7350.09 4.23288
7350.29 5.08225
7350.48 6.19278
7350.67 7.67744
7350.87 9.67003
7351.06 12.3767
7351.26 16.0227
7351.63 25.6347
7352.00 32.0439
7352.19 30.1573
7352.37 25.6320
7352.74 16.0203
7353.04 10.8216
7353.34 7.55482
7353.64 5.48660
7353.94 4.13130
7354.53 2.55683
7355.13 1.72824
7355.72 1.24307
7356.32 0.937358
7357.51 0.589246
7358.70 0.407585
7359.89 0.302093
7362.27 0.194729
7364.66 0.154416
7365.85 0.152653
7367.04 0.168176
7368.23 0.218856
7369.42 0.375438
7370.02 0.585122
7370.31 0.782805
7370.61 1.11751
7370.91 1.75402
7371.06 2.30898
7371.21 3.18122
7371.36 4.65670
7371.51 7.40731
7371.58 9.75052
7371.65 13.2143
7371.73 18.5422
7371.80 26.8337
7371.90 42.8625
7372.00 53.6211
7372.10 42.8611
7372.20 26.8319
7372.27 18.9918
7372.34 13.8025
7372.41 10.3383
7372.47 7.97097
7372.61 5.08395
7372.75 3.51098
7372.89 2.55948
7373.03 1.95172
7373.30 1.24514
7373.58 0.865996
7373.86 0.641085
7374.41 0.397468
7375.52 0.205309
7376.62 0.131577
7378.84 0.0738957
7381.05 0.0510059
7383.26 0.0389883
7385.47 0.0316031
7389.90 0.0229480
7398.75 0.0147866
7407.60 0.0108728
7425.29 0.00715282
7442.99 0.00550687
7460.69 0.00484279
7478.39 0.00526261
7487.24 0.00652571
7496.09 0.0105895
7500.51 0.0164040
7504.94 0.0328727
7507.15 0.0554667
7509.36 0.117695
7510.47 0.200737
7511.57 0.420875
7512.13 0.700715
7512.40 0.959462
7512.68 1.39020
7512.96 2.19160
7513.10 2.87224
7513.23 3.91689
7513.37 5.64213
7513.51 8.68800
7513.65 14.6431
7513.72 19.7479
7513.79 27.2227
7513.89 43.5168
7514.00 54.4483
7514.11 43.5162
7514.21 27.2224
7514.30 18.4674
7514.38 12.9082
7514.47 9.38014
7514.55 7.08637
7514.72 4.37990
7514.89 2.95847
7515.06 2.12105
7515.23 1.59475
7515.57 0.993463
7515.91 0.676454
7516.25 0.490491
7516.92 0.291637
7518.28 0.137904
7519.63 0.0806792
7522.34 0.0381363
7525.05 0.0227628
7530.46 0.0115299
7535.88 0.00751006
7546.71 0.00457605
7557.54 0.00353857
7579.21 0.00307711
7590.04 0.00422571
7595.45 0.00923614
7598.16 0.0283297
7599.52 0.0966331
7600.19 0.315389
7600.53 0.889193
7600.70 1.97229
7600.79 3.34610
7600.87 6.25300
7600.94 9.97992
7601.00 12.4999
7601.07 9.97998
7601.13 6.25308
7601.18 4.19612
7601.23 2.92707
7601.34 1.59049
7601.55 0.659611
7601.97 0.221634
7602.81 0.0661253
7604.49 0.0196091
7607.84 0.00688399
7614.55 0.00357801
7627.98 0.00286558
7641.40 0.00302552
7654.83 0.00363288
7668.25 0.00510271
7674.96 0.00660874
7681.67 0.00937671
7685.03 0.0117151
7688.39 0.0152889
7691.74 0.0211457
7695.10 0.0317353
7696.78 0.0405770
7698.45 0.0539551
7700.13 0.0755963
7701.81 0.114011
7703.49 0.192286
7704.33 0.266122
7705.17 0.392558
7706.00 0.635960
7706.42 0.852192
7706.84 1.19768
7707.26 1.80013
7707.68 2.97057
7707.89 4.00838
7708.10 5.63732
7708.31 8.30689
7708.52 12.7181
7708.76 20.3561
7709.00 25.4156
7709.24 20.3208
7709.48 12.7167
7709.63 9.30012
7709.78 6.94180
7710.08 4.15770
7710.39 2.71270
7710.69 1.89562
7710.99 1.39235
7711.29 1.06455
7711.90 0.678172
7712.50 0.468546
7713.11 0.342987
7714.32 0.206442
7715.53 0.137912
7716.73 0.0987602
7717.94 0.0743244
7719.15 0.0580623
7721.57 0.0384437
7723.99 0.0275255
7726.41 0.0208328
7728.83 0.0164395
7733.66 0.0112219
7738.50 0.00837518
7748.17 0.00559440
7757.84 0.00447820
7767.52 0.00436980
7777.19 0.00712106
7782.03 0.0191707
7784.44 0.0646887
7785.05 0.108852
7785.65 0.224181
7785.96 0.368904
7786.26 0.715832
7786.41 1.10582
7786.56 1.91441
7786.64 2.68653
7786.71 3.97121
7786.79 6.33090
7786.86 10.8041
7786.93 17.2399
7787.00 21.6061
7787.07 17.2399
7787.14 10.8043
7787.18 7.87858
7787.23 5.85190
7787.31 3.48026
7787.40 2.26364
7787.49 1.58306
7787.66 0.888575
7787.84 0.565842
7788.19 0.286133
7788.54 0.172757
7789.24 0.0832775
7789.94 0.0494849
7792.74 0.0149030
7798.35 0.00570541
7809.56 0.00333664
7831.99 0.00307185
7854.42 0.00497069
7865.63 0.0123948
7871.24 0.0407689
7872.64 0.0691779
7874.04 0.146800
7874.74 0.249607
7875.44 0.519030
7875.79 0.857280
7876.14 1.67064
7876.32 2.58804
7876.49 4.49846
7876.58 6.32933
7876.67 9.39677
7876.76 15.0607
7876.84 25.8074
7876.92 41.3477
7877.00 51.6000
7877.08 41.3476
7877.16 25.8076
7877.22 17.3601
7877.28 12.1029
7877.35 8.77892
7877.41 6.60272
7877.54 4.06264
7877.66 2.73844
7877.92 1.47192
7878.17 0.914449
7878.67 0.450711
7879.18 0.268130
7880.19 0.126991
7881.20 0.0745349
7883.22 0.0356130
7885.25 0.0216059
7893.33 0.00796486
7909.51 0.00516251
7925.69 0.00658652
7933.78 0.0121644
7937.82 0.0323567
7939.84 0.106187
7940.35 0.176825
7940.85 0.358415
7941.11 0.581515
7941.36 1.10362
7941.49 1.67513
7941.61 2.80264
7941.74 5.45032
7941.80 8.19643
7941.87 12.9616
7941.93 20.7683
7942.00 25.9097
7942.07 20.7684
7942.13 12.9618
7942.18 9.43315
7942.22 6.97190
7942.31 4.13933
7942.40 2.67806
7942.48 1.86656
7942.66 1.04393
7942.83 0.665480
7943.18 0.337236
7943.53 0.204557
7944.23 0.100078
7944.93 0.0607272
7947.73 0.0207646
7953.32 0.0108507
7964.50 0.0103731
7970.09 0.0119230
7975.68 0.0149971
7981.27 0.0249228
7984.06 0.0549678
7985.46 0.157009
7985.81 0.250165
7986.16 0.476778
7986.33 0.737380
7986.51 1.28844
7986.68 2.77010
7986.77 4.54766
7986.86 8.15184
7986.93 13.0142
7987.00 16.2861
7987.07 13.0143
7987.14 8.15212
7987.20 5.43874
7987.26 3.75039
7987.38 2.02107
7987.50 1.24300
7987.62 0.838331
7987.86 0.456610
7988.10 0.289879
7988.58 0.152099
7989.06 0.0982455
7990.98 0.0427833
7994.82 0.0316669
7998.66 0.0349613
8002.50 0.0431541
8006.34 0.0572337
8010.18 0.0828249
8014.02 0.146493
8014.98 0.186941
8015.94 0.275299
8016.42 0.378144
8016.90 0.625974
8017.14 0.917963
8017.38 1.57802
8017.50 2.27322
8017.62 3.60445
8017.74 6.55013
8017.80 9.41544
8017.86 14.0264
8017.93 22.3513
8018.00 27.8715
8018.07 22.3557
8018.14 14.0353
8018.22 8.31572
8018.30 5.31754
8018.38 3.64367
8018.46 2.66588
8018.62 1.62912
8018.78 1.13288
8019.10 0.699116
8019.42 0.527378
8020.05 0.409412
8020.69 0.389288
8021.96 0.445842
8023.23 0.586168
8024.50 0.842334
8025.77 1.32800
8026.40 1.73940
8027.04 2.35537
8027.67 3.30377
8028.31 4.76800
8029.15 7.62007
8030.00 9.52000
8030.85 7.61720
8031.69 4.76424
8032.45 3.08507
8033.21 2.08559
8033.96 1.47991
8034.72 1.09599
8036.23 0.664241
8037.74 0.444016
8039.25 0.317931
8040.76 0.239677
8043.78 0.152500
8046.80 0.109266
8049.82 0.0891572
8051.33 0.0883445
8052.84 0.103618
8054.35 0.207547
8054.73 0.308284
8055.11 0.559644
8055.30 0.855483
8055.49 1.50481
8055.58 2.16438
8055.67 3.34589
8055.77 5.71713
8055.82 7.80233
8055.86 10.9014
8055.93 17.4059
8056.00 21.7507
8056.07 17.4056
8056.14 10.9008
8056.22 6.29323
8056.30 3.92068
8056.38 2.63557
8056.45 1.88347
8056.61 1.09546
8056.77 0.722510
8057.09 0.392219
8057.41 0.255490
8058.04 0.145959
8058.67 0.103635
8061.21 0.0576095
8066.28 0.0433590
8071.34 0.0434542
8076.41 0.0518799
8081.48 0.0746821
8084.02 0.0978153
8086.55 0.138565
8089.08 0.218783
8090.35 0.291026
8091.62 0.408308
8092.89 0.616099
8093.52 0.785160
8094.15 1.03236
8094.79 1.41210
8095.42 2.02542
8096.05 3.07431
8096.37 3.86712
8096.69 4.90639
8097.34 7.84434
8098.00 9.80215
8098.66 7.84258
8099.31 4.90448
8099.90 3.17191
8100.49 2.14113
8101.08 1.51761
8101.67 1.12341
8102.84 0.680166
8104.02 0.453895
8105.19 0.324267
8106.37 0.243513
8108.72 0.152653
8111.07 0.105535
8113.42 0.0780559
8118.12 0.0490267
8122.82 0.0349727
8127.52 0.0273548
8136.92 0.0208781
8146.32 0.0213383
8151.02 0.0246665
8155.72 0.0321321
8160.42 0.0493225
8162.77 0.0666834
8165.12 0.0981310
8166.29 0.124291
8167.47 0.163638
8168.64 0.226687
8169.82 0.336939
8170.99 0.556103
8171.58 0.757479
8172.17 1.09145
8172.76 1.70609
8173.05 2.22527
8173.34 3.01220
8173.64 4.28785
8173.93 6.51105
8174.08 8.26707
8174.22 10.7364
8174.37 14.2596
8174.52 19.2184
8174.76 30.7671
8175.00 38.4212
8175.24 30.7142
8175.48 19.2163
8175.77 10.9366
8176.05 6.72682
8176.33 4.47078
8176.62 3.16013
8176.90 2.34240
8177.18 1.80171
8177.75 1.15754
8178.31 0.804879
8178.88 0.591781
8180.01 0.358742
8181.14 0.241046
8182.28 0.173518
8183.41 0.131236
8184.54 0.103021
8186.80 0.0688773
8189.07 0.0497763
8191.33 0.0380103
8193.60 0.0302444
8198.12 0.0209370
8202.65 0.0157715
8211.71 0.0105291
8220.76 0.00808658
8229.82 0.00682338
8247.93 0.00599113
8266.04 0.00683216
8275.10 0.00821756
8284.15 0.0110225
8288.68 0.0134746
8293.21 0.0172749
8297.74 0.0235596
8302.27 0.0349905
8304.53 0.0445633
8306.79 0.0590728
8309.06 0.0825829
8311.32 0.124390
8312.45 0.158712
8313.59 0.209785
8314.72 0.290530
8315.85 0.429156
8316.98 0.697094
8317.55 0.935783
8318.11 1.31979
8318.68 1.99217
8318.96 2.53254
8319.25 3.31541
8319.53 4.49912
8319.81 6.37727
8320.09 9.50046
8320.38 14.7630
8320.69 23.6197
8321.00 29.5233
8321.31 23.6176
8321.62 14.7610
8321.84 10.4342
8322.06 7.55592
8322.28 5.64121
8322.50 4.33661
8322.94 2.75897
8323.38 1.89440
8323.82 1.37592
8324.26 1.04262
8325.14 0.656622
8326.02 0.450499
8326.90 0.328201
8327.78 0.249687
8328.66 0.196447
8330.42 0.130841
8332.18 0.0935782
8333.94 0.0704000
8335.70 0.0550111
8339.22 0.0364874
8342.74 0.0261933
8346.25 0.0198843
8349.77 0.0157417
8356.81 0.0108092
8363.85 0.00809723
8377.92 0.00537867
8391.99 0.00412707
8406.07 0.00347264
8434.22 0.00293359
8462.36 0.00290825
8490.51 0.00331188
8504.58 0.00380067
8518.66 0.00486570
8532.73 0.00919042
8539.77 0.0243340
8541.53 0.0392862
8543.29 0.0800509
8544.17 0.134011
8545.05 0.275240
8545.49 0.452443
8545.93 0.880401
8546.15 1.36451
8546.37 2.37640
8546.48 3.34305
8546.59 4.98838
8546.70 8.00755
8546.81 13.7506
8546.90 22.0329
8547.00 27.4936
8547.10 22.0328
8547.19 13.7506
8547.28 9.14641
8547.36 6.31269
8547.44 4.52785
8547.52 3.38847
8547.68 2.07321
8547.85 1.38927
8548.17 0.744092
8548.50 0.462770
8549.15 0.229277
8549.80 0.137565
8551.10 0.0669886
8552.40 0.0408983
8557.61 0.0149185
8568.03 0.00928148
8578.45 0.0108880
8583.66 0.0174346
8586.26 0.0401303
8587.57 0.119438
8588.22 0.369752
8588.54 1.01264
8588.71 2.19668
8588.79 3.63196
8588.87 6.60113
8588.93 10.5267
8589.00 13.1920
8589.07 10.5267
8589.13 6.60126
8589.20 4.11385
8589.26 2.69903
8589.39 1.36755
8589.64 0.536732
8590.15 0.178710
8591.18 0.0586277
8593.22 0.0242203
8597.31 0.0160694
8605.50 0.0172139
8613.68 0.0226652
8621.86 0.0331328
8625.95 0.0419060
8630.05 0.0551313
8634.14 0.0763952
8638.23 0.113808
8642.32 0.189070
8644.37 0.259105
8646.41 0.377215
8648.46 0.599613
8649.48 0.792270
8650.50 1.09288
8651.52 1.59762
8652.04 1.98680
8652.55 2.52722
8653.06 3.30414
8653.57 4.45245
8654.08 6.19745
8654.59 8.85291
8655.30 14.1615
8656.00 17.6992
8656.70 14.1588
8657.41 8.85033
8658.21 5.09887
8659.02 3.16304
8659.83 2.11433
8660.63 1.50118
8661.44 1.11611
8662.24 0.860857
8663.85 0.555402
8665.46 0.387623
8667.08 0.286053
8670.30 0.174877
8673.52 0.118780
8676.74 0.0867406
8679.96 0.0668377
8683.19 0.0537288
8689.63 0.0383819
8696.08 0.0305753
8708.96 0.0255274
8721.85 0.0301076
8728.30 0.0375328
8734.74 0.0522021
8737.97 0.0647453
8741.19 0.0837704
8744.41 0.114349
8747.63 0.167725
8750.85 0.273109
8752.47 0.368909
8754.08 0.526335
8755.69 0.810707
8756.49 1.04678
8757.30 1.39917
8758.10 1.95549
8758.51 2.35911
8758.91 2.88968
8759.31 3.60325
8759.72 4.57629
8760.12 5.91552
8760.52 7.73901
8761.26 12.3791
8762.00 15.4711
8762.37 14.5605
8762.74 12.3764
8763.48 7.73635
8764.15 4.98215
8764.82 3.35280
8765.48 2.37014
8766.15 1.74942
8767.48 1.05360
8768.82 0.699601
8770.15 0.496996
8771.49 0.371035
8774.16 0.229460
8776.82 0.156083
8779.49 0.113307
8782.16 0.0862042
8784.83 0.0679721
8790.17 0.0457111
8795.50 0.0331512
8800.84 0.0253743
8806.18 0.0202296
8816.85 0.0140890
8827.53 0.0108216
8838.20 0.00958217
8843.54 0.0120551
8846.21 0.0238517
8847.54 0.0670461
8848.21 0.206236
8848.54 0.573698
8848.71 1.27703
8848.79 2.16551
8848.87 4.07925
8848.94 6.51213
8849.00 8.15139
8849.06 6.51216
8849.13 4.07928
8849.20 2.32461
8849.27 1.42801
8849.42 0.671801
8849.72 0.249210
8850.31 0.0812331
8851.49 0.0275503
8853.86 0.0121808
8858.59 0.00781246
8868.06 0.00630065
8886.99 0.00577695
8905.93 0.00706793
8915.39 0.0120481
8920.13 0.0301979
8922.49 0.0971246
8923.09 0.161712
8923.68 0.329727
8923.97 0.539145
8924.27 1.03975
8924.42 1.59899
8924.57 2.74879
8924.64 3.82729
8924.71 5.62659
8924.79 8.83423
8924.86 14.7109
8924.93 23.5001
8925.00 29.4159
8925.07 23.5002
8925.14 14.7111
8925.21 8.89268
8925.28 5.72295
8925.36 3.90218
8925.43 2.81885
8925.57 1.64671
8925.72 1.07347
8926.01 0.558196
8926.30 0.341918
8926.88 0.167878
8927.46 0.101066
8929.78 0.0320013
8934.42 0.0139718
8943.69 0.0107999
8952.97 0.0126703
8962.25 0.0174288
8966.88 0.0215853
8971.52 0.0279223
8976.16 0.0381669
8980.80 0.0562264
8985.44 0.0925153
8987.76 0.126208
8990.07 0.182902
8992.39 0.289139
8993.55 0.380778
8994.71 0.523119
8995.87 0.760492
8997.03 1.19276
8997.61 1.55010
8998.19 2.07408
8998.77 2.86087
8999.35 4.03954
9000.18 6.46102
9001.00 8.07460
9001.83 6.45965
9002.65 4.03832
9003.23 2.85832
9003.81 2.07348
9004.39 1.54973
9004.97 1.19309
9006.13 0.760902
9007.29 0.523831
9008.45 0.381612
9009.60 0.290202
9011.92 0.184380
9014.24 0.128192
9016.56 0.0951374
9021.19 0.0608251
9025.83 0.0468734
9028.15 0.0451396
9030.47 0.0479900
9032.78 0.0598953
9035.10 0.0992326
9036.26 0.153798
9037.42 0.298679
9038.00 0.480996
9038.58 0.919653
9038.87 1.41480
9039.16 2.44484
9039.30 3.42348
9039.45 5.07926
9039.59 8.09146
9039.74 13.7868
9039.87 22.0334
9040.00 27.5596
9040.13 22.0327
9040.26 13.7862
9040.41 8.03492
9040.56 5.01908
9040.70 3.37171
9040.85 2.40219
9041.14 1.38557
9041.44 0.898389
9042.03 0.467022
9042.61 0.288254
9043.79 0.145007
9044.96 0.0899953
9047.31 0.0478453
9049.66 0.0319632
9054.36 0.0196457
9059.06 0.0149715
9063.77 0.0131274
9068.47 0.0138995
9073.17 0.0255525
9075.52 0.0728487
9076.69 0.239524
9076.98 0.390370
9077.28 0.752845
9077.43 1.16029
9077.57 2.00477
9077.72 4.15033
9077.79 6.56216
9077.87 11.1359
9077.93 17.8377
9078.00 22.2716
9078.07 17.8377
9078.13 11.1360
9078.21 6.60690
9078.28 4.17446
9078.43 2.03047
9078.57 1.17556
9078.72 0.764827
9079.01 0.396895
9079.30 0.243832
9080.46 0.0735333
9082.79 0.0246210
9087.44 0.0112757
9096.74 0.00771596
9106.05 0.00752882
9115.35 0.00873899
9124.65 0.0122668
9129.31 0.0160252
9133.96 0.0230084
9136.28 0.0289253
9138.61 0.0379666
9140.94 0.0527534
9143.26 0.0793711
9144.42 0.101482
9145.59 0.134758
9146.75 0.188185
9147.91 0.281971
9149.08 0.469688
9149.66 0.643519
9150.24 0.934303
9150.82 1.47663
9151.11 1.94115
9151.40 2.65525
9151.69 3.83615
9151.84 4.72684
9151.98 5.94546
9152.13 7.67125
9152.27 10.1458
9152.42 13.7857
9152.56 19.1255
9152.78 30.5776
9153.00 38.2029
9153.11 35.9213
9153.22 30.5201
9153.44 19.0801
9153.64 12.1819
9153.84 8.13940
9154.04 5.72365
9154.24 4.20797
9154.64 2.52087
9155.04 1.66855
9155.45 1.18145
9155.85 0.879227
9156.65 0.540844
9157.46 0.365770
9158.26 0.264009
9159.06 0.199597
9159.87 0.156380
9161.47 0.103717
9163.08 0.0741077
9164.69 0.0558347
9166.29 0.0437842
9169.51 0.0293848
9172.72 0.0214793
9175.93 0.0167284
9179.15 0.0137218
9185.58 0.0106555
9192.00 0.0106897
9198.43 0.0206549
9201.64 0.0628725
9202.45 0.104771
9203.25 0.216565
9203.65 0.360091
9204.05 0.716916
9204.26 1.13756
9204.46 2.06547
9204.56 3.01389
9204.66 4.72784
9204.76 8.21388
9204.81 11.3211
9204.86 16.0262
9204.93 25.6779
9205.00 32.0387
9205.07 25.6779
9205.14 16.0263
9205.22 9.42519
9205.30 5.91139
9205.38 3.97929
9205.46 2.83719
9205.62 1.63496
9205.77 1.05956
9206.09 0.545959
9206.40 0.332353
9207.03 0.161330
9207.66 0.0960770
9210.19 0.0285185
9215.23 0.0102010
9225.31 0.00516162
9235.40 0.00416727
9245.48 0.00403851
9265.65 0.00699232
9275.73 0.0204301
9278.25 0.0341712
9280.77 0.0723788
9282.03 0.123997
9283.29 0.263218
9283.93 0.444706
9284.56 0.907210
9284.87 1.46724
9285.03 1.96439
9285.19 2.75290
9285.34 4.12688
9285.50 6.76531
9285.58 9.09500
9285.66 12.7261
9285.74 18.6216
9285.82 28.2525
9285.91 45.2498
9286.00 56.5189
9286.09 45.2495
9286.18 28.2525
9286.25 20.3267
9286.31 14.9802
9286.43 8.81166
9286.55 5.67317
9286.67 3.93596
9286.92 2.18843
9287.16 1.38511
9287.65 0.695656
9288.14 0.417335
9289.12 0.198411
9290.10 0.116071
9292.06 0.0543748
9294.02 0.0319753
9301.86 0.00975851
9317.53 0.00417414
9333.20 0.00404386
9341.03 0.00758348
9344.95 0.0219920
9346.91 0.0755099
9347.89 0.258274
9348.13 0.419572
9348.38 0.795971
9348.50 1.20665
9348.62 2.01319
9348.75 3.89324
9348.81 5.82806
9348.87 9.19824
9348.93 14.7222
9349.00 18.3983
9349.07 14.7223
9349.13 9.19833
9349.19 6.08111
9349.24 4.19730
9349.35 2.26127
9349.57 0.930398
9349.79 0.498882
9350.01 0.309856
9350.89 0.0913897
9352.66 0.0263240
9356.18 0.00853561
9363.23 0.00384638
9377.32 0.00262169
9405.50 0.00241745
9433.69 0.00276042
9447.78 0.00348683
9454.82 0.00545265
9458.35 0.0122526
9460.11 0.0367227
9460.99 0.118850
9461.43 0.353021
9461.65 0.858374
9461.76 1.59873
9461.87 3.50846
9462.00 7.01176
9462.13 3.50852
9462.26 1.40231
9462.39 0.699546
9462.66 0.270852
9463.18 0.0881115
9464.24 0.0275356
9466.34 0.0101737
9470.56 0.00593035
9478.98 0.00678661
9487.41 0.0170292
9491.62 0.0564648
9492.67 0.0954053
9493.72 0.199888
9494.25 0.335003
9494.78 0.675243
9495.04 1.08342
9495.30 1.99969
9495.44 2.95712
9495.57 4.74145
9495.63 6.27238
9495.70 8.58865
9495.77 12.2064
9495.83 17.8335
9495.92 28.4987
9496.00 35.6651
9496.09 28.4986
9496.17 17.8335
9496.24 11.6749
9496.32 7.93183
9496.39 5.64456
9496.47 4.18576
9496.61 2.53611
9496.76 1.69301
9497.06 0.898971
9497.35 0.555930
9497.94 0.272920
9498.53 0.162291
9499.72 0.0774211
9500.90 0.0460342
9505.62 0.0145220
9515.08 0.00654453
9533.99 0.00531059
9543.44 0.00587623
9552.90 0.00749305
9562.35 0.0149698
9567.08 0.0421347
9568.26 0.0687846
9569.45 0.140198
9570.04 0.232391
9570.63 0.465025
9570.92 0.743578
9571.22 1.36871
9571.37 2.02114
9571.51 3.23708
9571.66 5.85253
9571.74 8.30709
9571.81 12.1023
9571.91 19.3911
9572.00 24.1955
9572.10 19.3909
9572.19 12.1023
9572.25 8.95623
9572.31 6.74734
9572.42 4.09650
9572.54 2.70037
9572.66 1.89865
9572.89 1.07392
9573.12 0.688593
9573.59 0.351847
9574.05 0.214267
9574.98 0.105249
9575.91 0.0639696
9579.62 0.0218483
9587.06 0.0113002
9594.49 0.0100388
9601.92 0.0103836
9616.79 0.0130468
9631.66 0.0185231
9646.52 0.0299460
9653.96 0.0407813
9661.39 0.0594207
9668.82 0.0955885
9672.54 0.127974
9676.25 0.180366
9679.97 0.272958
9681.83 0.348055
9683.69 0.457859
9685.55 0.626063
9687.40 0.897398
9689.26 1.35923
9691.12 2.16410
9693.06 3.46036
9695.00 4.32364
9696.94 3.45867
9698.88 2.16255
9700.21 1.54572
9701.53 1.12996
9702.86 0.850129
9704.18 0.657782
9706.83 0.422664
9709.48 0.292609
9712.13 0.214096
9714.78 0.163439
9720.08 0.104519
9725.38 0.0730562
9730.67 0.0544055
9741.27 0.0345141
9751.87 0.0249127
9762.47 0.0198166
9783.66 0.0158500
9804.86 0.0168329
9815.46 0.0194668
9826.06 0.0248373
9836.65 0.0364053
9841.95 0.0476227
9847.25 0.0673651
9852.55 0.107201
9855.20 0.144529
9857.85 0.208110
9860.50 0.329910
9861.83 0.437495
9863.15 0.608976
9864.47 0.905871
9865.14 1.14150
9865.80 1.47899
9866.46 1.98263
9867.12 2.76505
9867.79 4.03222
9868.45 6.10956
9869.22 9.76724
9870.00 12.1998
9870.78 9.76069
9871.55 6.10453
9872.17 4.15570
9872.78 2.92043
9873.39 2.13259
9874.00 1.61406
9875.22 1.00712
9876.44 0.685830
9877.66 0.497323
9878.88 0.378228
9881.33 0.242529
9883.77 0.171674
9886.21 0.130479
9891.10 0.0879081
9895.98 0.0688721
9900.87 0.0604697
9910.64 0.0605442
9920.41 0.0801892
9925.30 0.101829
9930.19 0.139262
9935.07 0.208905
9937.52 0.267608
9939.96 0.356338
9942.40 0.498099
9943.62 0.602173
9944.84 0.740589
9946.07 0.928660
9947.29 1.18845
9948.51 1.55206
9949.73 2.05663
9951.87 3.28620
9954.00 4.10553
9955.07 3.86333
9956.14 3.28411
9958.27 2.05432
9959.88 1.42027
9961.49 1.01083
9963.10 0.745434
9964.71 0.568296
9967.94 0.358633
9971.16 0.246156
9974.38 0.179699
9977.60 0.137489
9984.05 0.0894686
9990.49 0.0652087
9996.93 0.0541086
10000.2 0.0542985
10003.4 0.0652582
10005.0 0.0841052
10006.6 0.138944
10007.4 0.213614
10008.2 0.407980
10008.6 0.650568
10009.0 1.23120
10009.2 1.88079
10009.4 3.21990
10009.5 4.48091
10009.6 6.59683
10009.7 10.4112
10009.8 13.4493
10009.8 18.5221
10009.9 29.6334
10010.0 36.9126
10010.1 29.6331
10010.2 18.4203
10010.3 12.1144
10010.3 8.20970
10010.4 5.83427
10010.5 4.48032
10010.7 2.69827
10010.8 1.83602
10011.1 0.990817
10011.4 0.623064
10012.0 0.319454
10012.7 0.200313
10013.9 0.108336
10015.1 0.0740340
10017.6 0.0476376
10020.1 0.0375770
10025.0 0.0294600
10030.0 0.0263271
10034.9 0.0253861
10039.9 0.0269977
10044.8 0.0396433
10047.3 0.0855969
10048.5 0.233498
10049.2 0.623216
10049.5 1.36699
10049.6 2.26650
10049.8 4.17880
10049.9 6.63088
10050.0 8.31813
10050.1 6.63082
10050.2 4.16137
10050.4 2.03243
10050.6 1.11465
10051.0 0.474281
10051.8 0.173068
10053.3 0.0669468
10056.3 0.0361112
10062.4 0.0305217
10068.5 0.0343853
10074.5 0.0440119
10080.6 0.0649670
10083.7 0.0851639
10086.7 0.120407
10089.7 0.190467
10091.3 0.254982
10092.8 0.362784
10094.3 0.562946
10095.1 0.733998
10095.8 0.997600
10096.6 1.43146
10097.0 1.75941
10097.3 2.20791
10097.7 2.83749
10098.1 3.74435
10098.5 5.07586
10098.9 6.96289
10099.4 11.1631
10100.0 13.8971
10100.3 13.0679
10100.6 11.0851
10101.2 6.96274
10101.5 5.07640
10101.9 3.77436
10102.6 2.26669
10103.4 1.48041
10104.1 1.04237
10104.8 0.770598
10105.6 0.595972
10107.0 0.390582
10108.5 0.279388
10110.0 0.213587
10112.9 0.144577
10115.8 0.112961
10118.8 0.0987007
10124.6 0.0978749
10130.5 0.129884
10133.4 0.166465
10136.4 0.231389
10139.3 0.357842
10140.8 0.469290
10142.2 0.644074
10143.0 0.773382
10143.7 0.943227
10144.4 1.17484
10145.2 1.50010
10145.9 1.98010
10146.6 2.69403
10147.4 3.80069
10148.1 5.52324
10149.1 8.84343
10150.0 11.0237
10150.5 10.3695
10151.0 8.80396
10151.9 5.52015
10152.8 3.47691
10153.7 2.30088
10154.6 1.60826
10155.6 1.17832
10157.4 0.704586
10159.2 0.467970
10161.0 0.332965
10162.8 0.249866
10166.4 0.156579
10170.1 0.108338
10173.7 0.0803755
10181.0 0.0508993
10188.2 0.0366639
10195.5 0.0290057
10210.0 0.0226340
10224.6 0.0232802
10231.8 0.0265844
10239.1 0.0336232
10246.3 0.0489360
10250.0 0.0635983
10253.6 0.0888353
10257.2 0.137701
10259.1 0.181512
10260.9 0.251934
10262.7 0.377019
10264.5 0.625635
10265.4 0.853209
10266.3 1.22178
10267.2 1.85215
10268.1 2.94114
10269.1 4.69494
10270.0 5.86349
10270.9 4.69500
10271.9 2.94237
10272.5 2.17536
10273.0 1.63766
10274.2 1.00103
10275.4 0.664912
10276.5 0.474808
10277.7 0.356948
10278.8 0.280872
10281.1 0.192184
10283.4 0.146545
10285.7 0.122240
10290.4 0.107936
10295.0 0.129514
10297.3 0.160461
10299.6 0.218981
10301.9 0.337883
10303.1 0.446927
10304.2 0.623527
10305.4 0.941168
10306.0 1.20118
10306.5 1.57627
10307.1 2.16367
10307.7 3.10089
10308.0 3.80432
10308.3 4.73869
10308.5 5.98632
10308.8 7.57171
10309.4 12.1096
10310.0 15.1364
10310.3 14.2163
10310.6 12.1071
10311.2 7.56851
10311.8 4.55414
10312.4 2.93443
10313.0 2.00258
10313.6 1.44975
10314.3 1.08958
10314.9 0.850696
10316.1 0.557561
10317.3 0.393894
10318.6 0.293623
10321.0 0.182722
10323.5 0.125540
10325.9 0.0923261
10330.8 0.0571623
10335.8 0.0397382
10340.7 0.0298440
10350.5 0.0196356
10360.3 0.0151564
10370.1 0.0143801
10375.1 0.0164725
10380.0 0.0244935
10382.4 0.0363453
10384.9 0.0696680
10386.1 0.114862
10387.3 0.236342
10388.0 0.395079
10388.6 0.788452
10388.9 1.26485
10389.2 2.28943
10389.3 3.42094
10389.5 5.40382
10389.6 7.19200
10389.6 9.50665
10389.7 13.5444
10389.8 19.4006
10389.9 31.3306
10390.0 38.7775
10390.1 31.3302
10390.2 19.4005
10390.3 11.8101
10390.4 7.47161
10390.5 5.05629
10390.6 3.72194
10390.9 2.13983
10391.1 1.40587
10391.5 0.727704
10391.9 0.444150
10392.8 0.216538
10393.6 0.129946
10395.3 0.0635145
10397.1 0.0390335
10403.9 0.0141474
10410.7 0.00903709
10417.6 0.00702019
10431.3 0.00527273
10445.0 0.00447032
10472.3 0.00377438
10499.7 0.00371535
10527.1 0.00438193
10540.8 0.00525885
10554.5 0.00698346
10568.1 0.0108016
10575.0 0.0146362
10581.8 0.0216217
10585.3 0.0275043
10588.7 0.0364201
10592.1 0.0509139
10595.5 0.0768128
10597.2 0.0981794
10598.9 0.130127
10600.6 0.180971
10602.4 0.269100
10604.1 0.442010
10604.9 0.599690
10605.8 0.854765
10606.6 1.31875
10607.1 1.70285
10607.5 2.25931
10607.9 3.14932
10608.1 3.80896
10608.3 4.63522
10608.6 5.79114
10608.8 7.28493
10609.0 9.30854
10609.2 12.0257
10609.6 19.2985
10610.0 23.9743
10610.2 22.4726
10610.4 19.1081
10610.8 12.0241
10611.2 7.53644
10611.6 4.96484
10612.0 3.45616
10612.4 2.52244
10612.8 1.91312
10613.2 1.49676
10613.9 0.988835
10614.7 0.697028
10615.5 0.517071
10617.0 0.317445
10618.6 0.214031
10620.1 0.154402
10621.7 0.116526
10623.3 0.0912806
10626.4 0.0604612
10629.5 0.0431531
10632.6 0.0324758
10635.7 0.0254292
10641.9 0.0170000
10648.1 0.0123420
10654.4 0.00949977
10660.6 0.00763907
10673.0 0.00543344
10685.5 0.00423041
10710.3 0.00305641
10735.2 0.00258930
10760.1 0.00254599
10785.0 0.00362142
10797.4 0.00828668
10803.6 0.0264236
10806.7 0.0944630
10807.5 0.160826
10808.3 0.331914
10808.7 0.548217
10809.1 1.07106
10809.3 1.68399
10809.4 2.90059
10809.5 4.12172
10809.6 5.95991
10809.7 9.64698
10809.8 16.3157
10809.9 25.8312
10810.0 32.6866
10810.1 25.8311
10810.2 16.3157
10810.2 11.9595
10810.3 8.70462
10810.4 5.02413
10810.5 3.20508
10810.6 2.26845
10810.9 1.24129
10811.1 0.792067
10811.6 0.396795
10812.0 0.239993
10813.0 0.113987
10813.9 0.0671631
10817.7 0.0190887
10825.1 0.00643608
10840.1 0.00327222
10870.0 0.00286385
10899.9 0.00430068
10914.9 0.00898749
10922.4 0.0252059
10926.1 0.0845200
10927.0 0.142945
10928.0 0.297030
10928.4 0.496876
10928.9 0.982311
10929.1 1.58056
10929.4 2.84986
10929.5 4.19910
10929.6 6.42879
10929.7 8.41126
10929.7 11.3431
10929.8 15.7806
10929.8 21.4166
10929.9 34.9033
10930.0 42.8101
10930.1 34.9032
10930.2 21.4168
10930.2 14.0904
10930.3 9.26089
10930.4 6.42925
10930.5 4.85934
10930.6 2.85047
10930.8 1.90577
10931.1 1.00080
10931.4 0.623673
10932.0 0.304390
10932.6 0.182934
10933.9 0.0896894
10935.1 0.0560227
10940.0 0.0291501
10944.9 0.0625651
10946.1 0.101473
10947.4 0.206394
10948.0 0.345082
10948.6 0.691079
10948.9 1.11325
10949.2 2.03019
10949.4 3.05449
10949.5 4.87378
10949.6 6.53688
10949.7 8.71638
10949.7 12.5771
10949.8 18.0846
10949.9 28.7131
10950.0 36.0731
10950.1 28.7128
10950.2 17.9932
10950.3 12.5770
10950.4 8.71631
10950.4 6.28887
10950.5 4.70928
10950.7 2.88933
10950.8 1.98350
10951.1 1.07506
10951.4 0.671841
10952.1 0.334312
10952.7 0.200518
10953.9 0.0963651
10955.2 0.0579016
10960.2 0.0185902
10970.1 0.00826542
10980.1 0.00664504
10990.0 0.00662770
11000.0 0.00748723
11009.9 0.00973639
11019.9 0.0188394
11024.9 0.0499955
11026.1 0.0806587
11027.4 0.162909
11028.0 0.270267
11028.6 0.546155
11028.9 0.883615
11029.2 1.67018
11029.4 2.56058
11029.5 4.21217
11029.6 5.79643
11029.7 8.37751
11029.8 12.8227
11029.8 20.2821
11029.9 32.6231
11030.0 40.4314
11030.1 32.6231
11030.2 20.1587
11030.2 13.5791
11030.3 9.75941
11030.4 6.92198
11030.4 5.32961
11030.6 3.29231
11030.7 2.21947
11030.9 1.19744
11031.2 0.747242
11031.7 0.372655
11032.2 0.226938
11033.3 0.111894
11034.3 0.0697387
11038.4 0.0278721
11046.7 0.0202309
11055.0 0.0239561
11063.3 0.0334199
11071.6 0.0532625
11075.7 0.0715758
11079.8 0.101902
11084.0 0.157174
11086.1 0.203410
11088.1 0.273076
11090.2 0.384123
11092.3 0.573687
11093.3 0.721210
11094.3 0.922830
11095.4 1.20682
11096.4 1.59582
11098.2 2.53279
11100.0 3.14918
11101.8 2.53174
11103.6 1.59481
11105.3 1.02016
11106.9 0.683847
11108.6 0.482109
11110.3 0.355244
11113.6 0.213772
11116.9 0.142074
11120.2 0.101205
11123.5 0.0758432
11130.2 0.0474383
11136.8 0.0327996
11143.5 0.0243220
11156.7 0.0154882
11170.0 0.0113673
11183.3 0.00940256
11196.6 0.00947966
11203.2 0.0139620
11206.5 0.0321380
11208.2 0.0983847
11209.0 0.316663
11209.5 0.933278
11209.7 2.23111
11209.8 3.94294
11209.9 8.37575
11209.9 13.1018
11210.0 16.7175
11210.1 13.1018
11210.1 8.37581
11210.2 4.49040
11210.3 2.61206
11210.5 1.20235
11210.8 0.426969
11211.5 0.133039
11212.9 0.0417676
11215.7 0.0163394
11221.3 0.00963892
11232.5 0.00826107
11243.6 0.00877718
11254.8 0.0103082
11266.0 0.0136457
11271.6 0.0168256
11277.1 0.0223821
11282.7 0.0337330
11285.5 0.0446351
11288.3 0.0639538
11291.1 0.103649
11292.5 0.141838
11293.9 0.208085
11295.3 0.341084
11296.0 0.463955
11296.7 0.665816
11297.4 1.04457
11297.7 1.36782
11298.1 1.86502
11298.4 2.68076
11298.8 4.13282
11299.0 5.34315
11299.1 6.97903
11299.3 9.33609
11299.5 12.7146
11299.7 20.2685
11300.0 25.2762
11300.3 20.2676
11300.5 12.7139
11300.8 8.40303
11301.0 5.76508
11301.2 4.13301
11301.5 3.08245
11301.9 1.88375
11302.4 1.26291
11302.8 0.904089
11303.3 0.679282
11304.2 0.427059
11305.1 0.293963
11306.0 0.217002
11307.9 0.135043
11309.7 0.0952943
11311.5 0.0734885
11315.2 0.0530785
11318.9 0.0472920
11322.5 0.0534796
11326.2 0.104390
11327.1 0.155713
11328.0 0.290581
11328.5 0.464532
11328.9 0.898870
11329.2 1.41097
11329.4 2.54327
11329.5 3.76263
11329.6 5.80637
11329.7 9.86287
11329.8 13.8017
11329.8 19.4699
11329.9 31.4017
11330.0 38.9909
11330.1 31.4018
11330.2 19.4702
11330.2 12.2953
11330.3 8.44403
11330.4 5.80702
11330.5 4.36463
11330.6 2.62158
11330.8 1.78585
11331.1 0.949212
11331.3 0.602246
11331.9 0.311911
11332.5 0.199387
11333.7 0.114226
11334.9 0.0840220
11339.6 0.0607134
11344.3 0.0698178
11349.0 0.0950201
11353.7 0.148564
11356.1 0.198100
11358.4 0.279464
11360.8 0.427346
11362.0 0.550225
11363.1 0.732169
11364.3 1.02122
11365.5 1.50217
11366.1 1.87140
11366.7 2.37465
11367.3 3.06670
11367.8 3.99200
11368.9 6.38819
11370.0 7.96319
11371.1 6.36331
11372.2 3.99066
11373.2 2.49715
11374.3 1.65066
11375.3 1.14945
11376.4 0.842407
11378.4 0.503315
11380.5 0.333988
11382.6 0.238425
11384.7 0.179593
11388.9 0.114428
11393.1 0.0815726
11397.3 0.0633097
11405.6 0.0471452
11414.0 0.0465592
11418.1 0.0526079
11422.3 0.0665724
11426.5 0.0983086
11428.6 0.129555
11430.7 0.184397
11432.8 0.292929
11433.8 0.392280
11434.9 0.553976
11435.9 0.848897
11436.4 1.09122
11437.0 1.45238
11437.5 2.01963
11438.0 2.96805
11438.3 3.68766
11438.5 4.66392
11438.8 5.99943
11439.0 7.81088
11439.5 12.5082
11440.0 15.5415
11440.3 14.5814
11440.5 12.4049
11441.0 7.80940
11441.4 5.17697
11441.8 3.56123
11442.2 2.55888
11442.6 1.91229
11443.4 1.17290
11444.3 0.789082
11445.1 0.566896
11445.9 0.427513
11447.5 0.269685
11449.2 0.187364
11450.8 0.139176
11454.1 0.0881401
11457.4 0.0630676
11460.6 0.0491296
11467.2 0.0353407
11473.7 0.0296864
11480.3 0.0277801
11493.4 0.0306607
11506.5 0.0433969
11513.1 0.0567018
11519.6 0.0799622
11526.2 0.124760
11529.4 0.164192
11532.7 0.226301
11536.0 0.332352
11537.6 0.415194
11539.3 0.531099
11540.9 0.700908
11542.5 0.957449
11544.2 1.35712
11545.8 1.97718
11547.9 3.14018
11550.0 3.90640
11552.1 3.13866
11554.2 1.97565
11555.6 1.41816
11557.1 1.03997
11558.5 0.784253
11559.9 0.608820
11562.8 0.392713
11565.6 0.272664
11568.5 0.200093
11571.3 0.153267
11577.0 0.0992066
11582.7 0.0716272
11588.4 0.0596108
11591.3 0.0610768
11594.1 0.0774869
11595.6 0.104606
11597.0 0.181826
11597.7 0.286843
11598.4 0.557946
11598.8 0.900198
11599.1 1.68611
11599.3 2.57594
11599.5 4.39461
11599.6 6.08768
11599.7 8.88583
11599.7 13.7963
11599.8 21.7555
11599.9 34.5306
11600.0 43.4294
11600.1 34.5303
11600.2 21.7552
11600.2 16.1962
11600.3 11.8293
11600.4 6.86109
11600.5 4.39358
11600.6 3.11992
11600.9 1.72059
11601.1 1.10767
11601.6 0.567681
11602.0 0.353095
11603.0 0.180073
11603.9 0.115249
11607.6 0.0465935
11611.4 0.0313029
11615.1 0.0246627
11622.6 0.0181412
11630.0 0.0146539
11645.0 0.0112749
11652.4 0.0126869
11656.1 0.0225206
11658.0 0.0607437
11658.9 0.191075
11659.4 0.579597
11659.6 1.43181
11659.8 2.80741
11659.9 6.17638
11659.9 10.1747
11660.0 12.3380
11660.1 9.56895
11660.1 6.17640
11660.2 3.42675
11660.3 2.07305
11660.5 0.958728
11660.8 0.358853
11661.4 0.116473
11662.6 0.0380743
11665.1 0.0155139
11670.1 0.00909293
11680.0 0.00684599
11689.9 0.00629982
11694.9 0.00730638
11697.4 0.0121084
11698.6 0.0295186
11699.3 0.0844818
11699.6 0.224317
11699.7 0.493799
11699.9 1.51209
11700.0 3.00950
11700.1 1.51209
11700.3 0.373744
11700.5 0.159711
11700.9 0.0561258
11701.8 0.0200646
11703.4 0.00915589
11706.6 0.00604799
11713.1 0.00504966
11726.1 0.00452850
11752.1 0.00421151
11778.1 0.00440939
11804.0 0.00528278
11830.0 0.00758645
11843.0 0.00999853
11856.0 0.0144355
11862.5 0.0181659
11869.0 0.0238103
11875.5 0.0329528
11882.0 0.0491169
11885.2 0.0623432
11888.5 0.0819341
11891.7 0.112710
11895.0 0.164842
11898.2 0.264318
11899.8 0.351180
11901.5 0.488315
11903.1 0.723830
11903.9 0.907214
11904.7 1.16612
11905.5 1.54457
11906.3 2.11871
11907.1 3.01874
11907.9 4.43834
11909.0 7.10013
11910.0 8.87388
11910.5 8.34189
11911.0 7.09860
11912.1 4.43685
11913.2 2.65862
11914.2 1.70177
11915.3 1.16164
11916.4 0.836324
11917.5 0.626569
11918.6 0.486812
11920.7 0.317098
11922.9 0.222116
11925.1 0.164338
11929.4 0.100309
11933.7 0.0676639
11938.0 0.0488250
11942.4 0.0369849
11946.7 0.0290646
11955.4 0.0194620
11964.0 0.0140873
11972.7 0.0107822
11981.3 0.00860946
11998.7 0.00603391
12016.0 0.00464710
12050.6 0.00339573
12085.3 0.00317872
12102.6 0.00343277
12119.9 0.00411316
12137.2 0.00575815
12145.9 0.00744643
12154.5 0.0105413
12158.9 0.0131465
12163.2 0.0171136
12167.5 0.0235837
12171.9 0.0352044
12174.0 0.0448714
12176.2 0.0593405
12178.4 0.0826638
12180.5 0.123378
12182.7 0.205187
12184.9 0.406348
12185.9 0.642959
12186.5 0.843779
12187.0 1.15301
12187.6 1.66124
12187.8 2.04485
12188.1 2.56876
12188.4 3.30302
12188.6 4.35864
12188.9 5.90557
12189.2 8.16526
12189.6 13.0487
12190.0 16.2978
12190.2 15.2979
12190.4 13.0476
12190.8 8.16425
12191.3 4.70343
12191.8 2.94426
12192.2 1.98008
12192.7 1.41104
12193.1 1.04578
12193.6 0.808420
12194.5 0.522965
12195.5 0.363945
12196.4 0.268533
12198.2 0.163129
12200.1 0.109747
12201.9 0.0790790
12203.8 0.0598711
12205.6 0.0471175
12209.3 0.0316195
12213.0 0.0230178
12216.7 0.0177522
12220.4 0.0143351
12227.8 0.0103668
12235.2 0.00836326
12250.0 0.00703176
12264.8 0.00806520
12272.1 0.00982468
12279.5 0.0133560
12283.2 0.0164195
12286.9 0.0211304
12290.6 0.0288448
12294.3 0.0426366
12298.0 0.0711341
12299.9 0.0983204
12301.7 0.145091
12303.6 0.237076
12305.4 0.455950
12306.3 0.700810
12306.8 0.900123
12307.3 1.19474
12307.7 1.65234
12308.2 2.40558
12308.6 3.72292
12308.9 4.73954
12309.1 6.09726
12309.6 9.72174
12310.0 12.1243
12310.5 9.63509
12310.9 6.02947
12311.3 3.79912
12311.8 2.51424
12312.2 1.75643
12312.6 1.29422
12313.5 0.774117
12314.3 0.511733
12315.2 0.362519
12316.0 0.270029
12317.7 0.166467
12319.4 0.112776
12321.1 0.0817724
12322.8 0.0621737
12324.5 0.0490083
12327.9 0.0329463
12331.3 0.0239551
12334.7 0.0184127
12338.1 0.0147639
12345.0 0.0104285
12351.8 0.00808835
12365.4 0.00591491
12379.0 0.00524325
12392.6 0.00553822
12406.2 0.00810040
12413.0 0.0167378
12416.4 0.0477326
12418.1 0.156371
12419.0 0.496533
12419.2 0.785339
12419.4 1.37523
12419.6 2.92923
12419.7 4.89769
12419.8 8.63854
12419.9 13.6847
12420.0 17.2548
12420.1 13.6846
12420.2 8.63858
12420.2 6.04566
12420.3 4.21683
12420.4 2.38941
12420.7 1.00683
12421.0 0.546506
12421.2 0.347876
12422.3 0.107374
12424.4 0.0343176
12428.7 0.0149042
12437.2 0.0117283
12445.7 0.0142418
12454.2 0.0202704
12458.5 0.0254967
12462.8 0.0334418
12467.0 0.0462476
12471.3 0.0686571
12475.5 0.113425
12479.8 0.222833
12481.9 0.348996
12483.0 0.456480
12484.0 0.619012
12485.1 0.885475
12485.6 1.08248
12486.2 1.34828
12486.7 1.71522
12487.2 2.23305
12487.8 2.97513
12488.3 4.03327
12489.1 6.45450
12490.0 8.06902
12490.4 7.59355
12490.9 6.45338
12491.7 4.03217
12492.7 2.29132
12493.7 1.40793
12494.8 0.935135
12495.8 0.662804
12496.8 0.490927
12497.8 0.377389
12499.8 0.242726
12501.8 0.168613
12503.8 0.124053
12507.8 0.0752539
12511.9 0.0505306
12515.9 0.0363780
12519.9 0.0274931
12523.9 0.0215795
12532.0 0.0144158
12540.0 0.0104134
12548.1 0.00795373
12556.1 0.00633646
12572.2 0.00441554
12588.3 0.00337723
12620.5 0.00242542
12652.8 0.00223429
12668.9 0.00240655
12685.0 0.00289905
12701.1 0.00412759
12709.1 0.00540939
12717.2 0.00778346
12721.2 0.00979858
12725.2 0.0128738
12729.2 0.0179269
12733.3 0.0270297
12735.3 0.0346574
12737.3 0.0461244
12739.3 0.0646106
12741.3 0.0972556
12743.3 0.163704
12744.3 0.226052
12745.3 0.330782
12746.3 0.531679
12746.8 0.705636
12747.3 0.979274
12747.9 1.45535
12748.1 1.82089
12748.4 2.33510
12748.6 3.08335
12748.9 4.21196
12749.1 5.96851
12749.4 8.71774
12749.5 11.2978
12749.7 14.0730
12750.0 17.5148
12750.2 16.3835
12750.3 13.8988
12750.7 8.71692
12750.9 5.96785
12751.2 4.21142
12751.4 3.08291
12751.7 2.33472
12752.2 1.45506
12752.6 0.993071
12753.1 0.714069
12753.6 0.540035
12754.6 0.337670
12755.6 0.230694
12756.6 0.167511
12757.6 0.127155
12758.6 0.0998378
12760.6 0.0663113
12762.5 0.0473103
12764.5 0.0355153
12766.5 0.0276956
12770.5 0.0182986
12774.4 0.0130819
12778.4 0.00988795
12782.3 0.00779093
12790.3 0.00529388
12798.2 0.00391857
12814.0 0.00253049
12829.9 0.00187675
12845.7 0.00151727
12877.4 0.00115947
12940.7 0.000938575
13004.1 0.000964474
13067.5 0.00121096
13099.2 0.00149342
13130.8 0.00202316
13162.5 0.00315884
13178.4 0.00428177
13194.2 0.00630660
13202.1 0.00799308
13210.0 0.0105394
13218.0 0.0146477
13225.9 0.0219146
13229.8 0.0278514
13233.8 0.0366452
13237.8 0.0504640
13241.7 0.0739858
13245.7 0.118850
13247.7 0.158260
13249.6 0.220727
13251.6 0.327755
13253.6 0.531327
13254.6 0.707004
13255.6 0.975775
13256.6 1.40171
13257.6 2.08217
13258.8 3.33622
13260.0 4.16274
13261.2 3.32457
13262.5 2.08143
13263.6 1.32798
13264.7 0.889776
13265.8 0.627017
13266.9 0.461724
13269.2 0.276693
13271.4 0.183351
13273.7 0.129881
13275.9 0.0968323
13280.4 0.0597311
13284.9 0.0405028
13289.4 0.0293151
13293.9 0.0222450
13298.4 0.0175064
13307.3 0.0117265
13316.3 0.00848598
13325.3 0.00648887
13334.3 0.00517751
13352.2 0.00362324
13370.2 0.00278561
13406.1 0.00200500
13442.0 0.00174877
13477.9 0.00179571
13495.8 0.00196226
13513.8 0.00237149
13531.7 0.00406700
13540.7 0.00991116
13545.2 0.0308642
13547.4 0.100468
13548.0 0.160357
13548.5 0.296190
13549.1 0.709555
13549.4 1.30026
13549.5 1.86645
13549.7 2.81328
13549.8 4.52215
13550.0 5.61656
13550.2 4.52204
13550.3 2.80510
13550.6 1.43578
13550.8 0.814629
13551.3 0.352330
13551.8 0.193613
13552.3 0.122213
13553.3 0.0619051
13554.3 0.0378503
13558.3 0.0122201
13566.3 0.00535429
13582.3 0.00416960
13598.3 0.00494051
13614.3 0.00685260
13622.3 0.00852286
13630.3 0.0110829
13638.3 0.0152629
13646.3 0.0227433
13650.3 0.0289364
13654.3 0.0382207
13658.3 0.0530520
13662.3 0.0788187
13666.3 0.129916
13668.3 0.176625
13670.3 0.253895
13672.3 0.394955
13673.3 0.513278
13674.3 0.692111
13675.3 0.978463
13675.8 1.18923
13676.3 1.47061
13676.8 1.85407
13677.3 2.38663
13677.8 3.13532
13678.3 4.15616
13679.1 6.65229
13680.0 8.31730
13680.4 7.82698
13680.9 6.65126
13681.7 4.15517
13682.3 3.04761
13682.8 2.28822
13683.9 1.38267
13684.9 0.905381
13686.0 0.635555
13687.1 0.467619
13688.1 0.358589
13690.2 0.229080
13692.4 0.158779
13694.5 0.116544
13698.8 0.0706944
13703.0 0.0476201
13707.3 0.0344721
13711.5 0.0263144
13715.8 0.0209610
13724.3 0.0147860
13732.8 0.0123235
13741.3 0.0163679
13745.6 0.0395914
13747.7 0.127679
13748.8 0.424090
13749.1 0.688255
13749.3 1.27039
13749.5 1.94413
13749.6 3.16864
13749.7 5.89057
13749.8 8.82744
13749.8 13.6541
13749.9 21.3754
13750.0 27.2893
13750.1 21.3754
13750.2 13.6542
13750.2 9.39168
13750.3 6.57687
13750.4 3.60713
13750.5 2.23412
13750.6 1.55465
13750.9 0.833632
13751.1 0.527302
13751.6 0.263158
13752.0 0.158532
13753.9 0.0474774
13757.6 0.0164739
13765.1 0.00781732
13772.6 0.00584947
13780.1 0.00499074
13795.0 0.00422576
13810.0 0.00396946
13839.9 0.00438149
13854.9 0.00583089
13862.4 0.0102993
13866.1 0.0264491
13868.0 0.0847546
13868.9 0.280730
13869.4 0.838347
13869.6 1.98763
13869.7 3.71191
13869.9 7.90374
13869.9 12.7886
13870.0 15.8136
13870.1 12.7886
13870.1 7.90379
13870.3 3.93920
13870.4 2.29091
13870.6 0.984271
13871.0 0.338761
13871.8 0.104446
13873.5 0.0322344
13876.8 0.0124969
13883.5 0.00776087
13890.2 0.00739084
13896.8 0.00782399
13910.2 0.00987025
13923.5 0.0138705
13936.9 0.0221825
13943.5 0.0300943
13950.2 0.0437796
13956.9 0.0705892
13960.2 0.0948956
13963.5 0.134574
13966.9 0.206162
13968.5 0.265360
13970.2 0.352921
13971.9 0.491046
13973.5 0.721866
13974.4 0.898147
13975.2 1.13437
13976.0 1.45681
13976.9 1.89335
13978.4 3.03095
13980.0 3.78236
13980.8 3.55583
13981.6 3.02244
13983.1 1.89267
13984.4 1.26915
13985.7 0.883477
13987.0 0.640477
13988.2 0.481814
13990.8 0.297651
13993.3 0.201433
13995.9 0.145148
13998.4 0.109846
14003.5 0.0697389
14008.6 0.0487891
14013.7 0.0366215
14023.8 0.0239474
14034.0 0.0181265
14044.2 0.0153560
14064.5 0.0144244
14084.9 0.0184417
14095.0 0.0234090
14105.2 0.0325801
14115.4 0.0512282
14120.5 0.0684918
14125.5 0.0972039
14130.6 0.150207
14133.2 0.194980
14135.7 0.263223
14138.3 0.374349
14139.5 0.456845
14140.8 0.568139
14142.1 0.721767
14143.3 0.938537
14144.6 1.24912
14145.9 1.69183
14147.9 2.70362
14150.0 3.37740
14151.0 3.17881
14152.1 2.70271
14154.1 1.69106
14155.9 1.11785
14157.6 0.769185
14159.4 0.553080
14161.1 0.413748
14164.6 0.254518
14168.1 0.171968
14171.5 0.124291
14175.0 0.0945080
14182.0 0.0612159
14188.9 0.0447460
14195.9 0.0373358
14199.4 0.0374232
14202.9 0.0444294
14206.3 0.0914869
14208.1 0.263667
14208.5 0.423546
14208.9 0.802101
14209.2 1.24200
14209.4 2.17719
14209.5 3.08715
14209.6 4.66712
14209.7 7.64882
14209.8 13.2143
14209.9 21.3783
14210.0 26.4491
14210.1 21.3782
14210.2 13.2142
14210.3 8.03497
14210.4 5.29419
14210.6 2.61537
14210.8 1.53372
14210.9 1.00497
14211.3 0.529969
14211.7 0.334301
14212.4 0.172688
14213.2 0.110179
14216.2 0.0444707
14222.2 0.0259907
14228.2 0.0222529
14234.2 0.0213106
14246.3 0.0230294
14258.3 0.0293598
14270.3 0.0444430
14276.3 0.0592476
14282.4 0.0848270
14288.4 0.134276
14291.4 0.178055
14294.4 0.247595
14297.4 0.367990
14298.9 0.462989
14300.4 0.598518
14301.9 0.800968
14303.4 1.11202
14304.2 1.33137
14304.9 1.61117
14305.7 1.96851
14306.4 2.42049
14307.3 3.09715
14308.2 3.87038
14310.0 4.83635
14310.9 4.55167
14311.8 3.86917
14313.6 2.41935
14315.3 1.54876
14316.9 1.03972
14318.5 0.734131
14320.2 0.541799
14323.5 0.327290
14326.7 0.219091
14330.0 0.158944
14333.3 0.126477
14334.9 0.121063
14336.6 0.133349
14338.2 0.240750
14339.0 0.615524
14339.2 0.941933
14339.4 1.62389
14339.7 3.67589
14339.8 6.23909
14339.9 11.9621
14339.9 19.5231
14340.0 23.8871
14340.1 19.5225
14340.1 11.9608
14340.2 7.95802
14340.3 5.25851
14340.4 2.69268
14340.7 1.11226
14341.0 0.606762
14341.2 0.398927
14342.3 0.156632
14344.5 0.0795478
14346.7 0.0595826
14348.9 0.0495845
14353.3 0.0380604
14357.6 0.0309367
14366.3 0.0220770
14375.1 0.0167497
14392.5 0.0107872
14410.0 0.00767439
14427.5 0.00586417
14444.9 0.00482101
14453.7 0.00459242
14462.4 0.00482994
14471.1 0.00771584
14475.5 0.0198924
14477.7 0.0654518
14478.8 0.222498
14479.3 0.700751
14479.6 1.79665
14479.7 3.65003
14479.8 5.67600
14479.9 8.71961
14479.9 13.9307
14480.0 17.4812
14480.1 13.9307
14480.1 8.71965
14480.2 5.30874
14480.3 3.25476
14480.5 1.51842
14480.8 0.566102
14481.4 0.177824
14482.6 0.0519495
14485.1 0.0159444
14490.1 0.00628981
14500.1 0.00368854
14520.0 0.00313747
14539.9 0.00513584
14549.8 0.0143679
14554.8 0.0499982
14556.1 0.0853756
14557.3 0.179275
14557.9 0.299635
14558.5 0.599911
14558.9 0.953546
14559.2 1.73457
14559.3 2.56311
14559.5 3.98414
14559.6 7.11512
14559.7 9.99623
14559.8 14.0891
14559.9 22.3259
14560.0 28.1645
14560.1 22.3257
14560.2 14.0890
14560.3 9.15379
14560.4 6.07983
14560.6 3.20881
14560.8 1.90028
14561.0 1.27115
14561.4 0.669616
14561.8 0.411498
14562.6 0.200606
14563.3 0.118646
14566.4 0.0329781
14572.7 0.00966179
14585.1 0.00349796
14610.0 0.00182130
14634.9 0.00167200
14647.4 0.00265910
14653.6 0.00686946
14656.7 0.0225905
14658.2 0.0768037
14659.0 0.238059
14659.4 0.609014
14659.6 1.17218
14659.8 2.76932
14660.0 5.52441
14660.2 2.75599
14660.4 1.08467
14660.6 0.541590
14661.1 0.204908
14661.9 0.0648337
14663.6 0.0190471
14667.1 0.00580464
14673.9 0.00222865
14687.6 0.00124833
14715.0 0.000933723
14742.5 0.000951177
14756.2 0.00146718
14763.0 0.00362472
14766.4 0.0119422
14768.2 0.0421817
14769.0 0.143768
14769.4 0.431872
14769.7 1.02087
14769.8 1.90371
14769.9 4.09937
14770.0 8.20432
14770.1 4.09939
14770.2 1.90373
14770.4 1.02089
14770.6 0.431885
14771.0 0.143773
14771.9 0.0421790
14773.6 0.0119301
14777.0 0.00359719
14783.9 0.00140966
14797.6 0.000837846
14825.0 0.000712303
14852.4 0.000994501
14866.1 0.00234950
14873.0 0.00772019
14876.4 0.0282308
14878.1 0.102216
14879.0 0.347101
14879.4 1.02213
14879.6 2.34041
14879.8 4.20390
14879.9 8.16755
14879.9 13.2870
14880.0 16.2795
14880.1 13.2871
14880.1 8.11240
14880.2 4.46350
14880.3 2.71117
14880.5 1.21275
14880.9 0.435667
14881.6 0.132710
14883.1 0.0370229
14886.1 0.0100895
14892.0 0.00293455
14903.9 0.00108566
14927.6 0.000603220
14975.0 0.000488355
15022.4 0.000669824
15046.1 0.00157359
15058.0 0.00517360
15063.9 0.0191190
15066.9 0.0710530
15068.3 0.251390
15068.7 0.413135
15069.1 0.798246
15069.3 1.24256
15069.5 2.10308
15069.6 4.37964
15069.7 6.79037
15069.8 11.6509
15069.9 18.3083
15070.0 23.2349
15070.1 18.3083
15070.2 11.5839
15070.3 7.55301
15070.3 5.27869
15070.5 2.78675
15070.8 1.15123
15071.1 0.617862
15071.3 0.383433
15072.5 0.110833
15074.9 0.0300397
15079.5 0.00804094
15088.9 0.00230443
15107.6 0.000844728
15145.0 0.000541899
15182.4 0.000922911
15201.1 0.00274643
15210.5 0.00996329
15215.2 0.0377365
15217.5 0.140247
15218.1 0.239317
15218.7 0.489264
15219.0 0.792044
15219.3 1.48758
15219.4 2.26296
15219.5 3.66185
15219.7 7.05770
15219.8 10.2157
15219.8 15.4200
15219.9 25.2285
15220.0 30.9058
15220.1 25.2284
15220.2 15.4201
15220.3 9.66535
15220.3 6.10234
15220.5 2.94146
15220.7 1.69564
15220.9 1.11947
15221.2 0.579735
15221.6 0.352792
15222.3 0.169908
15223.0 0.0995926
15225.8 0.0265507
15231.4 0.00701984
15242.6 0.00196491
15265.1 0.000670042
15310.1 0.000329788
15400.0 0.000233374
15489.9 0.000258817
15534.9 0.000476751
15557.4 0.00137059
15568.6 0.00489537
15574.2 0.0185344
15577.0 0.0695560
15578.4 0.246435
15579.1 0.782023
15579.5 2.05479
15579.7 4.26263
15579.8 6.75099
15579.8 10.7692
15579.9 17.6155
15580.0 21.5770
15580.1 17.6155
15580.2 10.7692
15580.3 6.39262
15580.4 3.88514
15580.6 1.85556
15580.8 1.03927
15580.9 0.673446
15581.7 0.205767
15583.3 0.0571048
15586.4 0.0151579
15592.6 0.00402508
15605.1 0.00115427
15630.0 0.000443999
15655.0 0.000428695
15667.4 0.000886120
15673.6 0.00277831
15676.8 0.0100537
15678.3 0.0366465
15679.1 0.125384
15679.5 0.374518
15679.7 0.872296
15679.8 1.60147
15679.9 3.20069
15680.0 6.39042
15680.1 3.20071
15680.3 1.09360
15680.4 0.493182
15680.8 0.178925
15681.4 0.0548426
15682.6 0.0152420
15685.1 0.00415104
15690.1 0.00121254
15700.1 0.000449540
15720.1 0.000246013
15760.1 0.000184355
15840.1 0.000164128
16000.0 0.000184969
16000.0 0.376050
17000.0 0.363153
20000.0 0.330080
21000.0 0.320566
25000.0 0.285920
30000.0 0.254299
35000.0 0.229109
40000.0 0.208819
50000.0 0.178676
60000.0 0.157286
70000.0 0.141022
80000.0 0.128870
90000.0 0.119288
99999.9 0.111575
100000 0.111972
150000 0.0889201
200000 0.0781587
250000 0.0725067
279430 0.0704864
279431 0.0704861
300000 0.0596693
400000 0.0497395
500000 0.0431903
542904 0.0423479
544899 0.0404025
573096 0.0354349
658011 0.0284845
700000 0.0261316
776733 0.0240313
800000 0.0232747
802379 0.0232220
812538 0.0228984
825159 0.0225080
838615 0.0220788
842776 0.0218586
846877 0.0216694
900000 0.0185648
950000 0.0171061
1.00000E+06 0.0158283
1.05924E+06 0.0152356
1.11847E+06 0.0146955
1.11847E+06 0.0146955
1.20473E+06 0.0145317
1.20473E+06 0.0145317
1.25000E+06 0.0143617
1.28239E+06 0.0143049
1.33929E+06 0.0142115
1.34405E+06 0.0141817
1.36936E+06 0.0140382
1.36936E+06 0.0140382
1.39285E+06 0.0139328
1.44643E+06 0.0136288
1.50000E+06 0.0133421
1.56203E+06 0.0131996
1.56203E+06 0.0131996
1.60678E+06 0.0131528
1.60678E+06 0.0131528
1.67839E+06 0.0131883
1.75000E+06 0.0132224
1.80605E+06 0.0133705
1.86211E+06 0.0135157
1.91816E+06 0.0136581
1.97421E+06 0.0137978
2.00000E+06 0.0138482
2.00995E+06 0.0138678
2.04574E+06 0.0139392
2.08153E+06 0.0140097
2.11059E+06 0.0140691
2.14896E+06 0.0141095
2.19108E+06 0.0141588
2.22054E+06 0.0141975
2.24490E+06 0.0139923
2.26926E+06 0.0137922
2.29362E+06 0.0135971
2.31797E+06 0.0134068
2.34233E+06 0.0132211
2.36669E+06 0.0130398
2.39105E+06 0.0128629
2.41541E+06 0.0126901
2.43976E+06 0.0125213
2.46412E+06 0.0123564
2.48848E+06 0.0121953
2.51284E+06 0.0120378
2.53720E+06 0.0118838
2.56155E+06 0.0117332
2.58591E+06 0.0115860
2.61027E+06 0.0114420
2.63463E+06 0.0113010
2.65899E+06 0.0111631
2.68335E+06 0.0110281
2.70770E+06 0.0108959
2.73206E+06 0.0107664
2.75642E+06 0.0106397
2.78078E+06 0.0105155
2.80514E+06 0.0103938
2.82949E+06 0.0102746
2.85385E+06 0.0101577
2.87821E+06 0.0100432
2.90257E+06 0.00993087
2.92693E+06 0.00982074
2.95128E+06 0.00971273
2.97564E+06 0.00960678
3.00000E+06 0.00950284
3.05801E+06 0.00914627
3.11603E+06 0.00880942
3.17404E+06 0.00849084
3.23205E+06 0.00818925
3.29006E+06 0.00790346
3.34808E+06 0.00763237
3.40609E+06 0.00737501
3.46410E+06 0.00713045
3.53109E+06 0.00686290
3.59808E+06 0.00661014
3.66506E+06 0.00637110
3.73205E+06 0.00614480
3.79904E+06 0.00593035
3.86603E+06 0.00572694
3.93301E+06 0.00553382
4.00000E+06 0.00535032
4.11804E+06 0.00499861
4.23607E+06 0.00467900
4.35411E+06 0.00438779
4.47214E+06 0.00412179
4.60043E+06 0.00385805
4.72871E+06 0.00361776
4.86436E+06 0.00338627
5.00000E+06 0.00317536
5.13152E+06 0.00295857
5.26303E+06 0.00276151
5.44124E+06 0.00252207
5.61945E+06 0.00231013
5.80973E+06 0.00210983
6.00000E+06 0.00193253
6.01720E+06 0.00191448
6.03440E+06 0.00189666
6.05160E+06 0.00187904
6.06880E+06 0.00186165
6.08600E+06 0.00184446
6.10320E+06 0.00182748
6.12040E+06 0.00181070
6.13760E+06 0.00179412
6.15480E+06 0.00177774
6.17199E+06 0.00176155
6.18919E+06 0.00174556
6.20639E+06 0.00172975
6.22359E+06 0.00171413
6.24079E+06 0.00169870
6.25799E+06 0.00168345
6.27519E+06 0.00166837
6.29318E+06 0.00165279
6.31117E+06 0.00163740
6.32916E+06 0.00162220
6.34714E+06 0.00160718
6.36513E+06 0.00159234
6.38312E+06 0.00157768
6.40111E+06 0.00156319
6.41910E+06 0.00154888
6.43708E+06 0.00153474
6.45507E+06 0.00152076
6.47306E+06 0.00150696
6.49105E+06 0.00149331
6.50904E+06 0.00147983
6.52702E+06 0.00146650
6.54501E+06 0.00145333
6.56300E+06 0.00144032
6.59031E+06 0.00142085
6.61763E+06 0.00140171
6.64494E+06 0.00138292
6.67225E+06 0.00136445
6.69956E+06 0.00134630
6.72688E+06 0.00132847
6.75419E+06 0.00131094
6.78150E+06 0.00129372
6.80881E+06 0.00127678
6.83613E+06 0.00126014
6.86344E+06 0.00124378
6.89075E+06 0.00122769
6.91806E+06 0.00121188
6.94538E+06 0.00119633
6.97269E+06 0.00118104
7.00000E+06 0.00116600
7.06041E+06 0.00112856
7.12083E+06 0.00109262
7.18124E+06 0.00105812
7.24166E+06 0.00102498
7.30207E+06 0.000993144
7.36248E+06 0.000962546
7.42290E+06 0.000933129
7.48331E+06 0.000904839
7.54263E+06 0.000880568
7.60194E+06 0.000857130
7.65170E+06 0.000838086
7.70146E+06 0.000819585
7.75121E+06 0.000801607
7.80097E+06 0.000784135
7.85073E+06 0.000767151
7.90049E+06 0.000750639
7.95024E+06 0.000734583
8.00000E+06 0.000718967
8.06066E+06 0.000702405
8.12132E+06 0.000686344
8.18198E+06 0.000670766
8.24264E+06 0.000655653
8.30330E+06 0.000640987
8.36396E+06 0.000626753
8.42462E+06 0.000612934
8.48528E+06 0.000599516
8.54962E+06 0.000591406
8.61396E+06 0.000583466
8.67830E+06 0.000575690
8.74264E+06 0.000568075
8.80698E+06 0.000560614
8.87132E+06 0.000553305
8.93566E+06 0.000546143
9.00000E+06 0.000539124
9.01030E+06 0.000540067
9.02060E+06 0.000541010
9.03089E+06 0.000541954
9.04119E+06 0.000542899
9.09690E+06 0.000548018
9.15260E+06 0.000553153
9.20831E+06 0.000558306
9.26401E+06 0.000563474
9.31972E+06 0.000568659
9.37542E+06 0.000573861
9.43113E+06 0.000579079
9.48683E+06 0.000584313
9.51890E+06 0.000589083
9.55098E+06 0.000593875
9.58305E+06 0.000598689
9.61512E+06 0.000603527
9.64720E+06 0.000608387
9.67927E+06 0.000613270
9.71134E+06 0.000618176
9.74342E+06 0.000623105
9.77549E+06 0.000628057
9.80756E+06 0.000633032
9.83964E+06 0.000638029
9.87171E+06 0.000643050
9.90378E+06 0.000648094
9.93585E+06 0.000653160
9.96793E+06 0.000658250
1.00000E+07 0.000663363
1.00180E+07 0.000667550
1.00360E+07 0.000671756
1.00540E+07 0.000675980
1.00720E+07 0.000680221
1.00899E+07 0.000684484
1.01079E+07 0.000688765
1.01259E+07 0.000693066
1.01439E+07 0.000697383
1.01619E+07 0.000701722
1.01799E+07 0.000706080
1.01979E+07 0.000710458
1.02159E+07 0.000714852
1.02338E+07 0.000719269
1.02518E+07 0.000723704
1.02698E+07 0.000728160
1.02878E+07 0.000732632
1.03101E+07 0.000738196
1.03323E+07 0.000743790
1.03546E+07 0.000749414
1.03768E+07 0.000755066
1.03991E+07 0.000760751
1.04213E+07 0.000766464
1.04436E+07 0.000772211
1.04659E+07 0.000777985
1.04881E+07 0.000783793
1.05104E+07 0.000789631
1.05326E+07 0.000795501
1.05549E+07 0.000801399
1.05771E+07 0.000807331
1.05994E+07 0.000813291
1.06217E+07 0.000819286
1.06439E+07 0.000825309
1.06662E+07 0.000831367
1.06884E+07 0.000837456
1.07107E+07 0.000843577
1.07329E+07 0.000849727
1.07552E+07 0.000855912
1.07774E+07 0.000862126
1.07997E+07 0.000868376
1.08220E+07 0.000874654
1.08442E+07 0.000880968
1.08665E+07 0.000887315
1.08887E+07 0.000893694
1.09110E+07 0.000900102
1.09332E+07 0.000906547
1.09555E+07 0.000913021
1.09778E+07 0.000919532
1.10000E+07 0.000926072
1.10626E+07 0.000935768
1.11252E+07 0.000945511
1.11878E+07 0.000955299
1.12504E+07 0.000965133
1.13441E+07 0.000979939
1.14378E+07 0.000994847
1.15315E+07 0.00100986
1.16252E+07 0.00102497
1.17189E+07 0.00104018
1.18126E+07 0.00105550
1.19063E+07 0.00107092
1.20000E+07 0.00108644
1.21455E+07 0.00108424
1.22911E+07 0.00108206
1.24366E+07 0.00107992
1.25821E+07 0.00107780
1.27911E+07 0.00107481
1.30000E+07 0.00107188
1.32500E+07 0.00105407
1.35000E+07 0.00103688
1.37500E+07 0.00102028
1.40000E+07 0.00100423
1.41250E+07 0.000996498
1.42500E+07 0.000988894
1.43750E+07 0.000981413
1.45000E+07 0.000974052
1.47500E+07 0.000959681
1.50000E+07 0.000945759
1.51517E+07 0.000939845
1.53034E+07 0.000934026
1.53034E+07 0.000934025
1.56517E+07 0.000921014
1.60000E+07 0.000908463
1.60233E+07 0.000908028
1.60466E+07 0.000907594
1.60699E+07 0.000907161
1.60932E+07 0.000906729
1.60933E+07 0.000906728
1.61074E+07 0.000906466
1.61215E+07 0.000906204
1.61357E+07 0.000905942
1.61499E+07 0.000905681
1.61641E+07 0.000905419
1.61782E+07 0.000905158
1.61924E+07 0.000904898
1.62066E+07 0.000904637
1.62207E+07 0.000904377
1.62349E+07 0.000904118
1.62491E+07 0.000903858
1.62632E+07 0.000903599
1.62774E+07 0.000903340
1.62916E+07 0.000903082
1.63057E+07 0.000902823
1.63199E+07 0.000902565
1.63341E+07 0.000902308
1.63482E+07 0.000902050
1.63624E+07 0.000901793
1.63766E+07 0.000901537
1.63908E+07 0.000901280
1.64049E+07 0.000901024
1.64191E+07 0.000900768
1.64333E+07 0.000900513
1.64474E+07 0.000900257
1.64616E+07 0.000900002
1.64758E+07 0.000899747
1.64899E+07 0.000899493
1.65041E+07 0.000899239
1.65183E+07 0.000898985
1.65324E+07 0.000898731
1.65466E+07 0.000898478
1.65608E+07 0.000898225
1.65749E+07 0.000897973
1.65891E+07 0.000897720
1.66033E+07 0.000897468
1.66175E+07 0.000897216
1.66316E+07 0.000896965
1.66458E+07 0.000896713
1.66600E+07 0.000896463
1.66741E+07 0.000896212
1.66883E+07 0.000895961
1.67025E+07 0.000895711
1.67166E+07 0.000895461
1.67308E+07 0.000895212
1.67450E+07 0.000894963
1.67591E+07 0.000894714
1.67733E+07 0.000894465
1.67875E+07 0.000894217
1.68016E+07 0.000893968
1.68158E+07 0.000893720
1.68300E+07 0.000893473
1.68442E+07 0.000893225
1.68583E+07 0.000892978
1.68725E+07 0.000892732
1.68867E+07 0.000892485
1.69008E+07 0.000892239
1.69150E+07 0.000891993
1.69292E+07 0.000891747
1.69433E+07 0.000891502
1.69575E+07 0.000891257
1.69717E+07 0.000891012
1.69858E+07 0.000890767
1.70000E+07 0.000890523
1.70156E+07 0.000890484
1.70313E+07 0.000890445
1.70469E+07 0.000890406
1.70625E+07 0.000890367
1.70781E+07 0.000890328
1.70938E+07 0.000890289
1.71094E+07 0.000890250
1.71250E+07 0.000890211
1.71406E+07 0.000890172
1.71563E+07 0.000890133
1.71719E+07 0.000890094
1.71875E+07 0.000890056
1.72031E+07 0.000890017
1.72188E+07 0.000889978
1.72344E+07 0.000889940
1.72500E+07 0.000889901
1.72656E+07 0.000889862
1.72813E+07 0.000889824
1.72969E+07 0.000889785
1.73125E+07 0.000889747
1.73281E+07 0.000889709
1.73438E+07 0.000889670
1.73594E+07 0.000889632
1.73750E+07 0.000889594
1.73906E+07 0.000889555
1.74063E+07 0.000889517
1.74219E+07 0.000889479
1.74375E+07 0.000889441
1.74531E+07 0.000889402
1.74688E+07 0.000889364
1.74844E+07 0.000889326
1.75000E+07 0.000889288
1.75156E+07 0.000889250
1.75313E+07 0.000889212
1.75469E+07 0.000889174
1.75625E+07 0.000889137
1.75781E+07 0.000889099
1.75938E+07 0.000889061
1.76094E+07 0.000889023
1.76250E+07 0.000888985
1.76406E+07 0.000888948
1.76563E+07 0.000888910
1.76719E+07 0.000888872
1.76875E+07 0.000888835
1.77031E+07 0.000888797
1.77188E+07 0.000888760
1.77344E+07 0.000888722
1.77500E+07 0.000888685
1.77656E+07 0.000888647
1.77813E+07 0.000888610
1.77969E+07 0.000888573
1.78125E+07 0.000888535
1.78281E+07 0.000888498
1.78438E+07 0.000888461
1.78594E+07 0.000888423
1.78750E+07 0.000888386
1.78906E+07 0.000888349
1.79063E+07 0.000888312
1.79219E+07 0.000888275
1.79375E+07 0.000888238
1.79531E+07 0.000888201
1.79688E+07 0.000888164
1.79844E+07 0.000888127
1.80000E+07 0.000888090
1.80354E+07 0.000888442
1.80708E+07 0.000888793
1.81062E+07 0.000889143
1.81417E+07 0.000889493
1.81771E+07 0.000889842
1.82125E+07 0.000890191
1.82479E+07 0.000890539
1.82833E+07 0.000890887
1.82833E+07 0.000890887
1.83729E+07 0.000891764
1.84625E+07 0.000892638
1.85521E+07 0.000893509
1.86417E+07 0.000894376
1.87313E+07 0.000895239
1.88208E+07 0.000896100
1.89104E+07 0.000896957
1.90000E+07 0.000897811
1.91250E+07 0.000900268
1.92500E+07 0.000902716
1.93750E+07 0.000905154
1.95000E+07 0.000907583
1.96250E+07 0.000910003
1.97500E+07 0.000912414
1.98750E+07 0.000914817
2.00000E+07 0.000917210