Mo-94(n,g) ENDF/B-VII.1
Energy(eV) XS(b)
1.00000E-05 17.1213
1.25000E-05 15.3138
1.50000E-05 13.9795
2.00000E-05 12.1066
2.75000E-05 10.3246
3.50000E-05 9.15174
4.25000E-05 8.30507
5.00000E-05 7.65689
6.25000E-05 6.84853
7.50000E-05 6.25182
0.000100000 5.41424
0.000125000 4.84264
0.000150000 4.42070
0.000200000 3.82844
0.000275000 3.26490
0.000350000 2.89402
0.000425000 2.62628
0.000500000 2.42131
0.000625000 2.16568
0.000750000 1.97698
0.00100000 1.71211
0.00125000 1.53135
0.00150000 1.39792
0.00200000 1.21063
0.00275000 1.03242
0.00350000 0.915132
0.00425000 0.830460
0.00500000 0.765639
0.00625000 0.684797
0.00750000 0.625121
0.0100000 0.541352
0.0125000 0.484184
0.0150000 0.441983
0.0200000 0.382743
0.0253000 0.340276
0.0314750 0.305051
0.0376500 0.278893
0.0500000 0.241971
0.0625000 0.216390
0.0750000 0.197503
0.100000 0.170986
0.125000 0.152884
0.150000 0.139517
0.200000 0.120745
0.275000 0.102869
0.350000 0.0910926
0.500000 0.0760620
0.750000 0.0618990
1.00000 0.0534292
1.50000 0.0433382
2.00000 0.0372864
2.75000 0.0314878
3.50000 0.0276403
5.00000 0.0226831
7.50000 0.0179426
10.0000 0.0150628
15.0000 0.0115770
20.0000 0.00945864
27.5000 0.00742096
35.0000 0.00607958
50.0000 0.00440522
75.0000 0.00299813
87.5000 0.00276737
93.7500 0.00297026
96.8750 0.00335175
100.000 0.00432786
102.177 0.00605957
103.265 0.00781793
104.353 0.0110492
104.897 0.0137809
105.441 0.0179552
105.985 0.0247914
106.530 0.0371279
106.802 0.0474035
107.074 0.0629064
107.346 0.0878764
107.618 0.131880
107.754 0.167721
107.890 0.220563
108.026 0.303127
108.162 0.442479
108.298 0.705015
108.366 0.932246
108.434 1.28707
108.502 1.88189
108.570 2.97595
108.604 3.88792
108.638 5.23657
108.672 7.28313
108.706 10.3922
108.753 16.6220
108.800 20.7749
108.847 16.6292
108.894 10.4012
108.939 6.56430
108.983 4.34768
109.028 3.03843
109.072 2.22405
109.161 1.32503
109.250 0.873867
109.339 0.617683
109.428 0.459219
109.606 0.282196
109.784 0.190908
109.962 0.137887
110.140 0.104379
110.318 0.0818914
110.674 0.0545061
111.029 0.0391053
111.385 0.0295925
111.741 0.0233081
112.453 0.0157750
113.165 0.0116008
114.588 0.00736606
116.012 0.00535898
117.435 0.00424474
120.282 0.00309971
125.976 0.00221116
131.671 0.00184264
143.059 0.00148749
154.447 0.00128823
200.000 0.000869348
275.000 0.000564253
350.000 0.000421067
500.000 0.000303951
625.000 0.000277129
750.000 0.000285656
875.000 0.000335048
937.500 0.000398406
968.750 0.000468091
1000.00 0.000656743
1025.80 0.00148461
1032.25 0.00232318
1038.70 0.00469644
1041.93 0.00799156
1045.15 0.0172981
1046.77 0.0301432
1047.57 0.0428850
1048.38 0.0659858
1049.19 0.114769
1049.59 0.162493
1049.99 0.247703
1050.19 0.318170
1050.39 0.422957
1050.60 0.590480
1050.80 0.879140
1051.00 1.44776
1051.10 1.96266
1051.20 2.79482
1051.30 4.29976
1051.35 5.55480
1051.40 7.38152
1051.45 10.2948
1051.50 15.0340
1051.55 23.3686
1051.60 38.5127
1051.65 61.8583
1051.70 76.9934
1051.75 61.3530
1051.80 38.5159
1051.83 28.3848
1051.86 21.2862
1051.92 12.8335
1051.98 8.41836
1052.04 5.92942
1052.10 4.36307
1052.16 3.33711
1052.28 2.13335
1052.40 1.47335
1052.51 1.07983
1052.75 0.649190
1052.99 0.432646
1053.23 0.308773
1053.47 0.231388
1053.71 0.179850
1054.19 0.117637
1054.67 0.0829546
1055.62 0.0476713
1056.58 0.0309948
1057.53 0.0218169
1059.44 0.0125887
1063.27 0.00590808
1067.09 0.00354857
1074.74 0.00185697
1082.38 0.00126828
1097.68 0.000861251
1112.97 0.000735929
1143.56 0.000689035
1174.14 0.000728691
1235.32 0.000931702
1296.49 0.00134134
1327.08 0.00169163
1357.66 0.00222915
1388.25 0.00311472
1418.84 0.00473126
1434.13 0.00609652
1449.42 0.00818810
1464.72 0.0116343
1480.01 0.0179269
1487.66 0.0232397
1495.30 0.0313709
1502.95 0.0447449
1510.59 0.0690767
1514.42 0.0895401
1518.24 0.120720
1522.06 0.171672
1525.89 0.263493
1527.80 0.339953
1529.71 0.455336
1530.67 0.536439
1531.62 0.641327
1532.10 0.705704
1532.58 0.780285
1533.06 0.867342
1533.53 0.969583
1534.01 1.09129
1534.49 1.23740
1534.97 1.41490
1535.45 1.63342
1535.92 1.90661
1536.40 2.25425
1536.88 2.70591
1537.36 3.30588
1537.84 4.13016
1538.31 5.30217
1538.79 7.04539
1539.27 9.79147
1539.75 14.4542
1539.99 18.0880
1540.23 23.2001
1540.46 30.6387
1540.70 41.8566
1540.94 59.3059
1541.18 86.4353
1541.49 138.278
1541.80 172.805
1542.11 138.210
1542.42 86.3698
1542.65 59.8924
1542.88 42.7525
1543.11 31.5670
1543.34 24.0607
1543.80 15.1118
1544.26 10.2964
1544.72 7.43257
1545.18 5.60921
1546.10 3.50813
1547.03 2.39542
1547.95 1.73754
1548.87 1.31707
1549.79 1.03233
1551.63 0.682759
1553.47 0.484610
1555.31 0.361615
1557.16 0.280090
1560.84 0.182170
1564.52 0.127865
1568.21 0.0946625
1571.89 0.0729044
1579.26 0.0470666
1586.63 0.0329161
1594.00 0.0243547
1601.36 0.0188065
1616.10 0.0123996
1630.83 0.00938887
1638.20 0.00900165
1645.57 0.0103846
1649.25 0.0132394
1652.94 0.0221040
1654.78 0.0346965
1655.70 0.0473040
1656.62 0.0702800
1657.54 0.118970
1658.00 0.166918
1658.46 0.252720
1658.92 0.430812
1659.15 0.601418
1659.38 0.899097
1659.61 1.48928
1659.73 2.02961
1659.84 2.92491
1659.96 4.56321
1660.02 5.95532
1660.07 8.02803
1660.13 11.4193
1660.19 17.1753
1660.25 28.1732
1660.30 49.5687
1660.35 79.5867
1660.40 99.0365
1660.45 78.9361
1660.50 49.5713
1660.54 32.4822
1660.58 22.3272
1660.62 15.9080
1660.66 11.8846
1660.75 7.23500
1660.83 4.83117
1660.91 3.44318
1661.00 2.57399
1661.16 1.59141
1661.33 1.07967
1661.49 0.780323
1661.66 0.590411
1661.82 0.463132
1662.16 0.306633
1662.49 0.218616
1663.15 0.127945
1663.81 0.0846598
1664.48 0.0606785
1665.80 0.0363889
1668.46 0.0186012
1671.11 0.0121851
1676.41 0.00737645
1681.72 0.00552139
1692.33 0.00393302
1702.94 0.00317275
1724.15 0.00235180
1745.37 0.00188257
1787.81 0.00135947
1830.25 0.00109847
1872.69 0.000977955
1915.13 0.000960407
1957.56 0.00105189
2000.00 0.00131286
2022.27 0.00157293
2044.54 0.00199233
2066.82 0.00270691
2089.09 0.00404274
2111.36 0.00695173
2122.50 0.00988389
2133.63 0.0152806
2139.20 0.0198643
2144.77 0.0269146
2150.34 0.0385759
2155.90 0.0599497
2158.69 0.0780404
2161.47 0.105781
2164.26 0.151483
2167.04 0.234786
2168.43 0.304910
2169.82 0.411872
2171.22 0.586819
2172.61 0.902378
2173.30 1.16524
2174.00 1.56205
2174.70 2.20192
2175.39 3.33240
2175.74 4.25465
2176.09 5.61861
2176.44 7.75728
2176.78 11.3857
2177.13 18.2704
2177.31 24.2840
2177.48 33.7594
2177.65 49.8529
2177.83 80.0504
2177.91 105.743
2178.00 144.499
2178.09 204.800
2178.17 297.733
2178.29 476.889
2178.40 596.520
2178.51 476.863
2178.63 297.725
2178.75 177.230
2178.87 112.874
2178.99 76.7765
2179.11 55.1316
2179.23 41.2292
2179.35 31.9771
2179.59 20.7677
2179.83 14.5104
2180.07 10.7075
2180.55 6.50558
2181.03 4.35994
2181.51 3.12489
2181.99 2.34722
2182.47 1.82820
2183.43 1.19773
2184.39 0.845226
2185.36 0.628221
2186.32 0.485230
2188.24 0.314413
2190.16 0.220256
2192.08 0.162879
2194.01 0.125351
2197.85 0.0808576
2201.69 0.0565023
2205.54 0.0417306
2209.38 0.0321054
2217.07 0.0207327
2224.76 0.0145266
2240.14 0.00832591
2255.52 0.00544037
2270.90 0.00386619
2301.65 0.00229261
2332.41 0.00155936
2363.17 0.00115894
2424.68 0.000759695
2547.71 0.000482932
2670.74 0.000410629
2793.76 0.000423563
2916.79 0.000536085
2978.31 0.000687601
3009.06 0.000830446
3039.82 0.00108105
3070.58 0.00159980
3101.33 0.00303389
3116.71 0.00501063
3132.09 0.0106072
3139.78 0.0183901
3143.62 0.0261812
3147.47 0.0404463
3151.31 0.0710247
3153.23 0.101499
3155.16 0.157030
3156.12 0.203827
3157.08 0.275141
3158.04 0.391775
3159.00 0.602142
3159.48 0.777595
3159.96 1.04191
3160.44 1.46906
3160.92 2.22218
3161.16 2.83939
3161.40 3.74892
3161.64 5.17475
3161.88 7.59316
3162.13 12.2073
3162.25 16.2270
3162.37 22.5624
3162.49 33.3277
3162.61 53.5431
3162.67 70.7576
3162.73 96.7499
3162.79 137.248
3162.85 200.677
3162.92 321.961
3163.00 401.450
3163.08 320.296
3163.16 200.675
3163.21 145.076
3163.26 107.654
3163.36 63.9507
3163.46 41.5641
3163.56 28.9390
3163.66 21.2199
3163.76 16.1893
3163.96 10.2799
3164.16 7.08834
3164.36 5.17688
3164.76 3.10361
3165.16 2.06453
3165.56 1.47137
3165.96 1.10135
3166.36 0.855180
3167.16 0.558338
3167.96 0.393031
3168.76 0.291646
3169.56 0.225024
3171.16 0.145688
3172.76 0.102052
3175.96 0.0581846
3179.16 0.0376715
3182.36 0.0264644
3188.76 0.0152636
3201.56 0.00722884
3214.36 0.00442394
3239.96 0.00246634
3265.56 0.00184835
3291.16 0.00163903
3316.76 0.00161572
3367.97 0.00192134
3419.17 0.00279952
3444.77 0.00366043
3470.37 0.00513301
3495.97 0.00794612
3508.77 0.0104366
3521.57 0.0144626
3534.38 0.0217267
3540.78 0.0279073
3547.18 0.0376826
3553.58 0.0552510
3556.78 0.0705081
3559.98 0.0956003
3563.18 0.143891
3564.78 0.188747
3566.38 0.266769
3567.98 0.425483
3568.78 0.577579
3569.58 0.845333
3570.38 1.38797
3570.78 1.89879
3571.18 2.77330
3571.58 4.45850
3571.78 5.95598
3571.98 8.35959
3572.18 12.5547
3572.38 20.7710
3572.48 28.0840
3572.58 39.6283
3572.68 58.6967
3572.78 90.7157
3572.89 145.129
3573.00 181.415
3573.11 145.122
3573.22 90.7147
3573.32 59.6903
3573.42 40.8258
3573.51 29.2078
3573.61 21.8160
3573.80 13.3339
3573.99 8.94292
3574.18 6.40555
3574.37 4.81602
3574.75 3.01930
3575.14 2.08462
3575.52 1.53922
3576.28 0.963854
3577.05 0.685524
3577.81 0.533516
3579.34 0.390018
3580.87 0.339261
3582.40 0.332080
3583.92 0.353575
3584.69 0.374010
3585.45 0.401325
3586.22 0.436436
3586.98 0.480619
3587.75 0.535918
3588.51 0.605197
3589.27 0.692678
3590.04 0.804060
3590.80 0.948187
3591.57 1.13831
3592.33 1.39561
3593.10 1.75335
3593.86 2.26993
3594.62 3.05068
3595.39 4.30181
3596.15 6.44633
3596.53 8.11438
3596.92 10.4277
3597.30 13.6751
3597.68 18.2038
3598.34 29.1323
3599.00 36.4192
3599.66 29.1175
3600.32 18.1881
3601.07 10.5217
3601.82 6.54632
3602.57 4.38439
3603.32 3.11699
3604.06 2.31931
3604.81 1.78973
3606.31 1.15476
3607.81 0.804995
3609.30 0.592956
3612.30 0.360061
3615.29 0.241830
3618.29 0.173751
3621.28 0.130963
3624.28 0.102334
3630.27 0.0675527
3636.25 0.0480130
3642.24 0.0359402
3648.23 0.0279561
3660.21 0.0183763
3672.19 0.0130617
3684.17 0.00980894
3696.14 0.00767509
3720.10 0.00514120
3744.06 0.00375742
3768.01 0.00292689
3791.97 0.00239652
3839.88 0.00180542
3887.79 0.00153781
3983.61 0.00148140
4079.43 0.00196241
4127.35 0.00255365
4175.26 0.00368506
4199.21 0.00465661
4223.17 0.00615538
4247.12 0.00863633
4271.08 0.0131812
4283.06 0.0170248
4295.04 0.0229138
4307.01 0.0326055
4318.99 0.0502437
4324.98 0.0650720
4330.97 0.0876600
4336.96 0.124538
4342.95 0.190878
4345.94 0.246001
4348.94 0.328965
4351.93 0.462300
4354.92 0.696521
4356.42 0.886696
4357.92 1.16629
4359.42 1.60151
4360.91 2.33221
4362.41 3.69648
4363.16 4.86898
4363.91 6.68169
4364.66 9.68789
4365.40 15.1099
4365.78 19.5602
4366.15 26.0127
4366.53 35.5949
4366.90 49.8069
4367.45 79.8375
4368.00 99.8381
4368.55 79.7456
4369.10 49.7853
4369.59 32.0833
4370.09 21.6068
4370.58 15.2706
4371.07 11.2739
4372.06 6.78725
4373.05 4.50265
4374.03 3.19376
4375.02 2.37983
4376.99 1.46429
4378.97 0.989770
4380.94 0.713282
4382.91 0.538265
4384.89 0.420572
4388.83 0.277071
4392.78 0.196311
4396.72 0.146411
4400.67 0.113442
4408.56 0.0739650
4416.46 0.0521437
4424.35 0.0388311
4432.24 0.0301248
4448.03 0.0198253
4463.81 0.0142325
4479.60 0.0109064
4495.38 0.00882820
4526.95 0.00679063
4542.74 0.00657779
4558.52 0.00705699
4574.31 0.00892362
4582.20 0.0110636
4590.09 0.0151601
4594.04 0.0186900
4597.99 0.0241424
4601.93 0.0331667
4605.88 0.0496554
4607.85 0.0635529
4609.82 0.0847405
4611.80 0.119376
4613.77 0.181779
4614.76 0.233727
4615.74 0.311968
4616.73 0.438048
4617.72 0.660007
4618.21 0.841018
4618.70 1.10759
4619.20 1.52411
4619.44 1.82688
4619.69 2.22728
4619.94 2.77675
4620.18 3.55517
4620.31 4.07387
4620.43 4.70734
4620.55 5.49794
4620.68 6.50093
4620.80 7.80936
4620.92 9.52520
4621.05 11.8473
4621.17 15.0784
4621.29 19.7601
4621.42 26.6505
4621.54 37.1322
4621.66 53.1016
4621.83 84.9589
4622.00 106.194
4622.17 84.9520
4622.34 53.0948
4622.49 34.5226
4622.64 23.3874
4622.79 16.6090
4622.93 12.2977
4623.23 7.43491
4623.53 4.94314
4623.83 3.51245
4624.13 2.61996
4624.72 1.61585
4625.32 1.09357
4625.91 0.788775
4626.51 0.595732
4627.10 0.466047
4628.30 0.307594
4629.49 0.218428
4630.68 0.163270
4631.87 0.126850
4634.25 0.0832075
4636.64 0.0590628
4639.02 0.0443179
4641.40 0.0346564
4646.17 0.0231792
4650.93 0.0168759
4655.70 0.0130422
4660.47 0.0105361
4670.00 0.00756174
4679.53 0.00592988
4698.59 0.00430134
4717.66 0.00357402
4736.72 0.00323750
4774.85 0.00319120
4812.97 0.00393869
4832.04 0.00485856
4851.10 0.00662394
4860.63 0.00814110
4870.16 0.0104807
4879.70 0.0143489
4889.23 0.0214175
4893.99 0.0273796
4898.76 0.0364892
4903.53 0.0514225
4908.29 0.0784402
4910.67 0.101025
4913.06 0.135231
4915.44 0.190643
4917.82 0.289197
4919.01 0.370180
4920.21 0.490642
4921.40 0.681397
4922.59 1.00897
4923.78 1.64374
4924.38 2.21041
4924.97 3.12212
4925.57 4.72545
4926.16 7.88853
4926.46 10.7354
4926.76 15.2757
4927.06 22.8791
4927.35 35.8071
4927.68 57.3644
4928.00 71.6859
4928.32 57.2820
4928.65 35.7999
4928.93 23.4801
4929.21 16.0149
4929.48 11.4299
4929.76 8.50242
4930.32 5.16447
4930.88 3.44587
4931.44 2.45308
4931.99 1.83308
4933.11 1.13205
4934.22 0.767240
4935.34 0.553954
4936.45 0.418690
4937.57 0.327606
4939.80 0.216418
4942.03 0.153742
4944.26 0.114982
4946.49 0.0893676
4950.95 0.0586671
4955.41 0.0416885
4959.87 0.0313249
4964.32 0.0245449
4973.24 0.0165164
4982.16 0.0121424
5000.00 0.00783933
5032.96 0.00519001
5065.93 0.00500707
5082.41 0.00586617
5098.89 0.00875184
5107.13 0.0128653
5115.37 0.0245516
5119.49 0.0407593
5121.55 0.0569187
5123.61 0.0863860
5125.67 0.149098
5126.70 0.211140
5127.73 0.323247
5128.76 0.558295
5129.27 0.787042
5129.79 1.19271
5130.05 1.52570
5130.30 2.01811
5130.56 2.79733
5130.82 4.12396
5131.08 6.68115
5131.21 8.94546
5131.33 12.5289
5131.46 18.7759
5131.59 30.8680
5131.66 41.5961
5131.72 58.0490
5131.79 84.6386
5131.85 128.119
5131.93 205.548
5132.00 256.267
5132.08 204.458
5132.15 128.118
5132.22 81.0471
5132.29 54.0628
5132.36 37.7979
5132.43 27.7836
5132.57 16.5868
5132.71 10.9724
5132.86 7.75339
5133.00 5.76037
5133.28 3.53678
5133.56 2.38505
5133.84 1.71775
5134.12 1.29461
5134.40 1.01147
5134.97 0.666099
5135.53 0.471964
5136.65 0.273153
5137.78 0.178462
5138.91 0.126185
5141.16 0.0733929
5145.66 0.0350758
5150.16 0.0215262
5159.17 0.0118576
5168.17 0.00856498
5177.17 0.00714984
5186.18 0.00649656
5204.19 0.00617415
5240.20 0.00724988
5276.22 0.0101826
5294.23 0.0127607
5312.24 0.0166893
5330.25 0.0230170
5339.25 0.0277188
5348.26 0.0340900
5352.76 0.0381582
5357.26 0.0430159
5359.51 0.0458061
5361.76 0.0488809
5364.01 0.0522798
5366.27 0.0560499
5368.52 0.0602467
5370.77 0.0649367
5375.27 0.0761323
5379.77 0.0905027
5384.27 0.109356
5388.78 0.134749
5393.28 0.170015
5397.78 0.220890
5402.28 0.297786
5406.78 0.420931
5411.29 0.632663
5413.54 0.797726
5415.79 1.02713
5418.04 1.34995
5420.29 1.80129
5424.15 2.88101
5428.00 3.59842
5431.86 2.87588
5435.71 1.79657
5440.26 1.01872
5444.81 0.626327
5449.36 0.422433
5451.63 0.377981
5452.20 0.387188
5452.77 0.437031
5453.05 0.512561
5453.34 0.711660
5453.48 0.952135
5453.62 1.49188
5453.69 2.04817
5453.76 3.07958
5453.83 5.23600
5453.87 7.24544
5453.90 10.2416
5453.95 16.2104
5454.00 20.1894
5454.05 16.2086
5454.10 10.2379
5454.16 5.80406
5454.21 3.64561
5454.27 2.50341
5454.33 1.84490
5454.45 1.16237
5454.56 0.843148
5454.80 0.560499
5455.03 0.442531
5455.49 0.343802
5455.96 0.301502
5457.82 0.237545
5461.54 0.183414
5468.98 0.123556
5476.43 0.0891646
5483.87 0.0673684
5498.76 0.0423198
5513.65 0.0290365
5528.53 0.0211631
5543.42 0.0161190
5573.20 0.0102655
5602.97 0.00712782
5632.75 0.00525254
5692.30 0.00321671
5751.85 0.00219249
5811.40 0.00160523
5930.49 0.000992941
6049.59 0.000701047
6168.69 0.000550683
6287.79 0.000503748
6347.34 0.000613330
6377.12 0.00110470
6392.00 0.00305363
6399.45 0.0107120
6403.17 0.0403206
6404.10 0.0699992
6405.03 0.150968
6405.50 0.257872
6405.96 0.536790
6406.19 0.885340
6406.43 1.71531
6406.54 2.65248
6406.66 4.56802
6406.72 6.36548
6406.78 9.36589
6406.83 14.7201
6406.89 24.6368
6406.95 39.5638
6407.00 49.2744
6407.06 39.2746
6407.11 24.6370
6407.15 17.4807
6407.19 12.6976
6407.22 9.50237
6407.26 7.31794
6407.34 4.66698
6407.41 3.20911
6407.57 1.76855
6407.72 1.11655
6408.02 0.557897
6408.32 0.333188
6408.93 0.157465
6409.53 0.0914759
6410.75 0.0421539
6411.96 0.0242724
6416.81 0.00655323
6426.51 0.00200905
6445.90 0.000870321
6484.69 0.000627704
6523.48 0.000664339
6562.27 0.000824302
6601.06 0.00121502
6620.46 0.00161791
6639.86 0.00236320
6649.55 0.00299674
6659.25 0.00397058
6668.95 0.00557880
6678.65 0.00851837
6683.50 0.0109999
6688.34 0.0147954
6693.19 0.0210265
6698.04 0.0323254
6700.47 0.0417944
6702.89 0.0561637
6705.32 0.0795261
6707.74 0.121260
6708.95 0.155733
6710.16 0.207266
6711.38 0.289332
6712.59 0.431723
6713.19 0.545797
6713.80 0.711559
6714.41 0.965354
6714.71 1.14591
6715.01 1.38160
6715.32 1.69699
6715.62 2.13165
6715.92 2.75237
6716.22 3.67796
6716.53 5.13283
6716.68 6.18900
6716.83 7.56835
6716.98 9.42583
6717.13 11.9322
6717.29 15.3895
6717.44 20.0568
6717.72 32.0728
6718.00 40.0747
6718.14 37.6888
6718.28 32.0241
6718.57 20.0182
6718.80 13.2976
6719.04 9.15985
6719.27 6.58474
6719.51 4.92495
6719.98 3.01223
6720.45 2.01850
6720.92 1.44081
6721.39 1.07871
6722.34 0.667931
6723.28 0.453120
6724.22 0.327261
6725.17 0.247325
6726.11 0.193489
6727.99 0.127621
6729.88 0.0904706
6731.76 0.0674766
6733.65 0.0522660
6737.42 0.0340281
6741.19 0.0239322
6744.96 0.0177658
6748.73 0.0137270
6756.27 0.00893117
6763.81 0.00630223
6771.36 0.00470704
6778.90 0.00366739
6793.98 0.00244008
6809.06 0.00177220
6824.15 0.00137089
6839.23 0.00111371
6869.39 0.000829940
6899.56 0.000743219
6914.64 0.000803584
6929.73 0.00109431
6944.81 0.00286136
6952.35 0.00994128
6956.12 0.0373782
6957.06 0.0648791
6958.01 0.139897
6958.48 0.239235
6958.95 0.498157
6959.18 0.821879
6959.42 1.59341
6959.54 2.46039
6959.66 4.25063
6959.71 5.93781
6959.77 8.76704
6959.83 13.8476
6959.89 23.2218
6959.95 37.0873
6960.00 46.4443
6960.06 37.0874
6960.11 23.2220
6960.15 16.1460
6960.19 11.4890
6960.23 8.46156
6960.27 6.43673
6960.36 4.03524
6960.44 2.74417
6960.60 1.49262
6960.77 0.932884
6961.09 0.461945
6961.42 0.274975
6962.08 0.129285
6962.73 0.0749723
6965.35 0.0198445
6970.60 0.00536558
6981.08 0.00164303
7002.06 0.000679970
7023.03 0.000487839
7044.01 0.000417050
7085.96 0.000414029
7106.93 0.000661091
7117.42 0.00170667
7122.66 0.00582739
7125.28 0.0216316
7126.59 0.0796560
7127.25 0.274931
7127.41 0.444945
7127.58 0.835338
7127.74 2.05403
7127.82 3.85542
7127.86 5.63152
7127.90 8.52480
7127.95 13.6466
7128.00 17.0406
7128.05 13.6467
7128.10 8.51605
7128.14 5.41676
7128.19 3.59955
7128.28 1.84796
7128.46 0.727117
7128.82 0.234132
7129.54 0.0670335
7130.97 0.0181355
7133.85 0.00490379
7139.60 0.00145947
7151.11 0.000576666
7174.12 0.000346388
7220.14 0.000279403
7312.18 0.000259136
7496.27 0.000298922
7588.31 0.000370771
7634.34 0.000439572
7680.36 0.000559211
7726.38 0.000802170
7749.39 0.00103672
7772.40 0.00145723
7783.91 0.00180883
7795.41 0.00234451
7806.92 0.00322338
7818.42 0.00482281
7824.18 0.00617070
7829.93 0.00823155
7835.68 0.0116166
7841.43 0.0177647
7844.31 0.0229275
7847.19 0.0307804
7850.06 0.0435828
7852.94 0.0665712
7854.38 0.0856522
7855.82 0.114319
7857.25 0.160281
7858.69 0.240815
7860.13 0.401571
7860.85 0.549844
7861.21 0.656795
7861.57 0.797530
7861.93 0.988922
7862.29 1.25644
7862.65 1.64802
7862.83 1.91462
7863.01 2.24756
7863.19 2.67508
7863.37 3.23177
7863.55 3.97218
7863.72 4.97377
7863.90 6.37858
7864.08 8.38835
7864.26 11.3159
7864.44 15.5365
7864.72 24.8754
7865.00 31.0705
7865.14 29.2236
7865.28 24.8375
7865.56 15.5344
7865.76 10.9126
7865.96 7.87391
7866.16 5.85406
7866.36 4.49119
7866.75 2.84627
7867.15 1.94920
7867.55 1.41298
7867.95 1.06905
7868.75 0.671639
7869.55 0.459832
7870.34 0.334347
7871.14 0.253854
7871.94 0.199317
7873.53 0.132159
7875.13 0.0940493
7876.72 0.0703600
7878.32 0.0546410
7881.51 0.0357348
7884.70 0.0252408
7887.89 0.0188172
7891.08 0.0146055
7897.46 0.00960159
7903.84 0.00685941
7910.22 0.00519905
7916.60 0.00412085
7929.37 0.00285898
7942.13 0.00218637
7967.65 0.00155888
7993.17 0.00132945
8018.70 0.00127905
8069.74 0.00151163
8095.27 0.00180924
8120.79 0.00230373
8146.31 0.00314893
8171.84 0.00471881
8184.60 0.00605266
8197.36 0.00809988
8210.12 0.0114735
8222.88 0.0176204
8229.26 0.0227928
8235.64 0.0306790
8242.02 0.0435699
8248.40 0.0667972
8251.60 0.0861350
8254.79 0.115295
8257.98 0.162278
8261.17 0.245128
8262.76 0.312653
8264.36 0.412307
8265.95 0.568224
8267.55 0.831924
8269.14 1.32987
8269.94 1.76295
8270.74 2.44086
8271.54 3.58506
8272.33 5.70460
8272.73 7.48888
8273.13 10.1505
8273.53 14.2339
8273.93 20.4962
8274.46 32.8151
8275.00 41.0067
8275.54 32.7833
8276.07 20.4723
8276.40 15.1914
8276.72 11.4604
8277.37 6.97038
8278.02 4.59846
8278.67 3.23523
8279.31 2.38868
8279.96 1.83234
8281.26 1.17182
8282.55 0.811545
8283.85 0.594661
8286.44 0.358090
8289.03 0.238874
8291.62 0.170629
8294.21 0.127960
8296.80 0.0995244
8301.98 0.0651746
8307.16 0.0460169
8312.34 0.0342563
8317.52 0.0265252
8327.88 0.0173152
8338.24 0.0122539
8348.60 0.00918270
8358.97 0.00718527
8379.69 0.00484826
8400.41 0.00361296
8421.13 0.00291971
8441.86 0.00254281
8483.30 0.00244794
8524.75 0.00356202
8545.47 0.00543930
8566.19 0.0109279
8576.56 0.0185690
8581.74 0.0261853
8586.92 0.0400612
8592.10 0.0695812
8594.69 0.0987800
8597.28 0.151558
8598.57 0.195667
8599.87 0.262383
8601.16 0.370354
8602.46 0.562150
8603.11 0.719629
8603.75 0.953448
8604.40 1.32342
8605.05 1.95692
8605.70 3.18140
8606.02 4.27090
8606.34 6.01451
8606.67 9.06787
8606.99 15.0553
8607.15 20.3906
8607.32 28.8217
8607.48 42.7648
8607.64 66.0191
8607.82 105.644
8608.00 132.063
8608.18 105.639
8608.36 66.0161
8608.56 38.6172
8608.76 24.2059
8608.97 16.2872
8609.17 11.6075
8609.37 8.65271
8609.57 6.68205
8609.97 4.31392
8610.37 3.00669
8610.77 2.21247
8611.58 1.34037
8612.38 0.897274
8613.19 0.642442
8613.99 0.482670
8614.79 0.376100
8616.40 0.246967
8618.01 0.174882
8619.62 0.130588
8621.22 0.101508
8624.44 0.0669880
8627.65 0.0482517
8634.08 0.0304886
8640.51 0.0248744
8646.94 0.0296889
8650.16 0.0415051
8653.37 0.0778242
8654.98 0.128406
8656.59 0.267125
8657.39 0.450276
8657.79 0.624713
8658.19 0.925500
8658.60 1.51463
8658.80 2.04586
8659.00 2.91164
8659.20 4.45687
8659.30 5.73067
8659.40 7.59276
8659.50 10.5104
8659.60 15.2551
8659.70 23.5062
8659.80 38.2834
8659.90 61.3759
8660.00 76.5664
8660.10 61.1285
8660.20 38.2828
8660.31 22.0424
8660.43 13.7188
8660.54 9.15950
8660.65 6.51175
8660.77 4.83464
8660.88 3.73079
8661.11 2.40294
8661.33 1.67300
8661.56 1.23073
8662.02 0.745867
8662.47 0.500437
8662.92 0.359430
8663.83 0.212170
8665.65 0.100692
8667.46 0.0598105
8671.09 0.0294644
8674.72 0.0183479
8681.98 0.00989544
8689.25 0.00661572
8703.77 0.00389824
8718.29 0.00272607
8747.34 0.00167101
8776.38 0.00119363
8834.47 0.000764137
8892.57 0.000577309
9008.75 0.000427747
9124.93 0.000392224
9241.11 0.000426889
9357.30 0.000581584
9415.39 0.000792752
9444.43 0.000996195
9473.48 0.00135780
9531.57 0.00419549
9546.09 0.00705175
9560.62 0.0150752
9567.88 0.0261405
9571.51 0.0371415
9575.14 0.0571371
9578.77 0.0995154
9580.58 0.141235
9582.40 0.216218
9583.31 0.278502
9584.22 0.372229
9585.12 0.522720
9586.03 0.786561
9586.48 1.00061
9586.94 1.31524
9587.39 1.80444
9587.85 2.62215
9588.30 4.14738
9588.53 5.45350
9588.75 7.46966
9588.98 10.7948
9589.21 16.7627
9589.43 28.6254
9589.55 38.9013
9589.66 53.9817
9589.83 86.3800
9590.00 107.981
9590.17 86.3761
9590.34 53.9793
9590.45 39.0103
9590.56 28.7743
9590.79 16.9793
9591.01 10.9689
9591.23 7.61737
9591.46 5.56828
9591.68 4.24335
9592.13 2.69044
9592.57 1.85207
9593.02 1.35115
9593.91 0.809407
9594.81 0.538062
9595.70 0.383521
9596.59 0.287171
9597.49 0.223097
9599.27 0.145842
9601.06 0.102875
9604.63 0.0592301
9608.21 0.0386484
9611.78 0.0273576
9618.93 0.0160698
9633.22 0.00813733
9647.51 0.00576857
9661.80 0.00554681
9668.95 0.00624314
9676.10 0.00794699
9683.24 0.0120000
9686.82 0.0161636
9690.39 0.0238240
9692.18 0.0302953
9693.96 0.0401678
9695.75 0.0563196
9697.54 0.0853943
9698.43 0.109598
9699.32 0.146025
9700.22 0.204595
9701.11 0.307628
9702.00 0.514909
9702.45 0.707541
9702.90 1.03103
9703.12 1.28366
9703.34 1.63880
9703.57 2.16177
9703.79 2.97444
9703.90 3.56199
9704.01 4.33549
9704.13 5.37817
9704.24 6.80642
9704.35 8.85712
9704.46 11.8348
9704.57 16.3428
9704.68 23.0421
9704.84 36.8659
9705.00 46.0810
9705.08 43.3379
9705.16 36.8645
9705.32 23.0407
9705.42 16.6399
9705.53 12.2667
9705.74 7.21722
9705.95 4.66204
9706.16 3.23280
9706.37 2.36389
9706.58 1.79991
9707.00 1.14119
9707.42 0.785741
9707.84 0.573851
9708.68 0.344157
9709.52 0.229163
9710.35 0.163697
9711.19 0.122890
9712.03 0.0957563
9713.71 0.0630427
9715.39 0.0448495
9717.07 0.0336963
9718.75 0.0263706
9722.10 0.0176529
9725.46 0.0128697
9728.82 0.00997425
9732.17 0.00809926
9738.89 0.00593149
9745.60 0.00483268
9759.03 0.00409236
9772.45 0.00465972
9785.88 0.00766753
9792.59 0.0121935
9799.31 0.0251573
9802.66 0.0430396
9806.02 0.0926276
9807.70 0.159410
9808.54 0.224184
9809.38 0.338663
9810.21 0.570302
9810.63 0.787451
9811.05 1.15523
9811.47 1.85561
9811.68 2.46857
9811.89 3.43051
9812.10 5.07450
9812.31 8.17105
9812.42 10.8160
9812.52 14.8211
9812.63 21.0832
9812.73 30.8109
9812.87 49.3738
9813.00 61.6275
9813.14 49.2257
9813.27 30.8101
9813.36 21.9992
9813.45 16.1164
9813.54 12.1427
9813.63 9.40096
9813.82 6.02739
9814.00 4.16663
9814.18 3.03531
9814.36 2.30796
9814.73 1.45911
9815.09 1.00253
9815.46 0.730514
9816.19 0.437152
9816.92 0.290516
9817.65 0.207145
9819.11 0.120660
9820.56 0.0790834
9822.02 0.0559582
9824.94 0.0324821
9830.78 0.0152996
9836.61 0.00916587
9848.28 0.00471861
9859.95 0.00314300
9883.29 0.00202485
9906.64 0.00167127
9953.32 0.00157890
10000.0 0.00186400
10055.9 0.00279931
10083.8 0.00377640
10111.7 0.00557347
10125.7 0.00709284
10139.6 0.00941456
10153.6 0.0132279
10167.6 0.0201385
10174.6 0.0259376
10181.5 0.0347332
10188.5 0.0490338
10195.5 0.0746102
10199.0 0.0957357
10202.5 0.127364
10206.0 0.177791
10209.5 0.265433
10213.0 0.438125
10214.7 0.595749
10216.4 0.853551
10218.2 1.32304
10219.1 1.71134
10219.9 2.29242
10220.8 3.22372
10221.7 4.78125
10222.6 7.60399
10223.4 12.9394
10224.2 20.6917
10225.0 25.8519
10225.8 20.6860
10226.6 12.9357
10227.1 9.41134
10227.6 7.02034
10228.6 4.20166
10229.6 2.74384
10230.6 1.91653
10231.6 1.40452
10232.6 1.07378
10234.6 0.683900
10236.6 0.471806
10238.6 0.345269
10242.6 0.207675
10246.6 0.138427
10250.6 0.0988856
10254.6 0.0742158
10258.6 0.0578364
10266.7 0.0380319
10274.7 0.0270213
10282.7 0.0202659
10290.7 0.0158391
10306.7 0.0105830
10322.8 0.00771776
10338.8 0.00600197
10354.8 0.00490994
10386.9 0.00369968
10418.9 0.00316256
10483.0 0.00309499
10547.2 0.00416835
10579.2 0.00542903
10611.3 0.00773978
10643.3 0.0124398
10651.4 0.0143635
10659.4 0.0167950
10663.4 0.0182613
10667.4 0.0199352
10671.4 0.0218573
10675.4 0.0240724
10679.4 0.0266561
10683.4 0.0296857
10687.4 0.0332686
10691.4 0.0375341
10695.4 0.0426911
10699.4 0.0489848
10703.5 0.0567666
10707.5 0.0665034
10711.5 0.0789517
10715.5 0.0951296
10719.5 0.116598
10723.5 0.145667
10727.5 0.186209
10731.5 0.243822
10735.5 0.327548
10739.5 0.448094
10745.8 0.714408
10752.0 0.892695
10755.1 0.843118
10758.3 0.722979
10764.5 0.478623
10767.3 0.416234
10770.2 0.421234
10771.6 0.493466
10772.3 0.579070
10773.0 0.739523
10773.7 1.08510
10774.0 1.41250
10774.4 1.97575
10774.8 3.10605
10774.9 4.12765
10775.1 5.67574
10775.3 8.54431
10775.5 13.8394
10775.5 18.8141
10775.6 26.7819
10775.7 40.1856
10775.8 61.8443
10775.9 97.6143
10776.0 123.501
10776.1 97.6105
10776.2 61.8389
10776.3 42.1688
10776.4 29.1641
10776.4 21.0374
10776.5 15.7696
10776.7 9.71958
10776.8 6.71561
10777.0 4.82784
10777.1 3.64663
10777.5 2.34130
10777.8 1.63317
10778.1 1.22963
10778.7 0.788580
10779.3 0.568499
10780.0 0.441945
10781.2 0.307816
10782.5 0.238637
10783.7 0.197018
10786.3 0.148895
10791.3 0.101880
10796.3 0.0770449
10806.4 0.0499253
10816.4 0.0353588
10826.5 0.0264337
10836.5 0.0205461
10856.6 0.0134715
10876.8 0.00954015
10896.9 0.00713075
10937.1 0.00445302
10977.3 0.00307782
11017.5 0.00228215
11098.0 0.00145744
11178.4 0.00109684
11258.9 0.00101972
11299.1 0.00115338
11319.2 0.00133133
11339.3 0.00168676
11359.4 0.00248496
11379.5 0.00479613
11389.6 0.00803041
11399.6 0.0171852
11404.7 0.0298587
11409.7 0.0653868
11412.2 0.114060
11413.5 0.162016
11414.7 0.247323
11416.0 0.425565
11416.6 0.597275
11417.2 0.891879
11417.9 1.48575
11418.2 2.04331
11418.5 2.94323
11418.8 4.66194
11419.0 6.13486
11419.1 8.23305
11419.3 11.8565
11419.4 17.7673
11419.6 29.8096
11419.7 40.0613
11419.7 54.6267
11419.9 86.0506
11420.0 109.045
11420.1 86.0486
11420.3 54.4089
11420.4 37.1276
11420.5 25.9508
11420.6 18.8557
11420.6 14.5850
11420.8 9.16933
11421.0 6.24922
11421.2 4.44511
11421.4 3.36247
11421.8 2.11132
11422.2 1.43271
11422.6 1.04288
11423.3 0.619017
11424.1 0.409338
11424.9 0.290622
11426.4 0.168194
11428.0 0.109608
11429.5 0.0771189
11432.6 0.0442200
11438.7 0.0202381
11444.9 0.0117100
11457.2 0.00555598
11469.5 0.00338602
11494.2 0.00183510
11518.8 0.00130435
11543.4 0.00107851
11568.1 0.000983864
11617.3 0.00100808
11666.6 0.00132423
11715.9 0.00240733
11740.5 0.00396596
11765.2 0.00841332
11777.5 0.0145855
11783.6 0.0207343
11789.8 0.0319271
11792.9 0.0413365
11796.0 0.0556695
11799.0 0.0790693
11802.1 0.121163
11803.7 0.156133
11805.2 0.208783
11806.7 0.293375
11808.3 0.442043
11809.1 0.562683
11809.8 0.740180
11810.6 1.01653
11811.4 1.48066
11812.1 2.34757
11812.5 3.10412
11812.9 4.24538
11813.3 6.18772
11813.7 9.60381
11814.1 16.3904
11814.2 22.2996
11814.4 30.9894
11814.7 49.9917
11815.0 62.1014
11815.3 49.2892
11815.6 30.9871
11815.8 21.9262
11816.0 16.1385
11816.3 9.48303
11816.7 6.12347
11817.1 4.24584
11817.5 3.10458
11817.9 2.36383
11818.6 1.49705
11819.4 1.03060
11820.1 0.751892
11820.9 0.572425
11821.7 0.450211
11823.2 0.299298
11824.7 0.213249
11826.2 0.159612
11827.7 0.123949
11830.8 0.0809688
11833.8 0.0570471
11836.9 0.0423812
11839.9 0.0327462
11846.0 0.0212620
11852.1 0.0149598
11864.2 0.00862403
11876.4 0.00566015
11888.6 0.00404215
11912.9 0.00242677
11937.2 0.00168012
11961.5 0.00128101
12010.2 0.000915570
12058.8 0.000828607
12107.5 0.00101777
12156.1 0.00244788
12180.5 0.00811721
12186.6 0.0138943
12192.6 0.0301354
12195.7 0.0524575
12198.7 0.114518
12200.2 0.198446
12201.8 0.425736
12202.5 0.722769
12202.9 1.00363
12203.3 1.48589
12203.7 2.41836
12203.8 3.24950
12204.0 4.58769
12204.2 6.93407
12204.4 11.5651
12204.5 15.9986
12204.6 22.3547
12204.7 34.2442
12204.8 54.1517
12204.9 87.3236
12205.0 108.308
12205.1 87.3225
12205.2 54.1512
12205.3 37.5540
12205.4 27.4628
12205.4 19.8976
12205.5 15.4558
12205.7 9.71162
12205.8 6.77091
12205.9 4.87209
12206.1 3.73174
12206.4 2.35007
12206.7 1.59316
12207.0 1.16152
12207.5 0.694998
12208.1 0.458992
12208.7 0.327359
12209.9 0.190612
12212.2 0.0878111
12214.5 0.0505785
12219.2 0.0234138
12223.9 0.0138542
12233.2 0.00721581
12242.5 0.00541550
12261.2 0.00921763
12270.5 0.0307405
12272.9 0.0530333
12275.2 0.115021
12276.4 0.199481
12277.5 0.426323
12278.1 0.729241
12278.7 1.49850
12279.0 2.43801
12279.1 3.31108
12279.3 4.62149
12279.4 7.09023
12279.6 11.6218
12279.6 16.3223
12279.7 22.9624
12279.8 33.8588
12279.8 52.3540
12279.9 83.5567
12280.0 104.710
12280.1 83.5562
12280.2 52.3538
12280.2 31.9389
12280.3 19.7284
12280.4 13.1259
12280.5 9.61684
12280.6 7.09047
12280.7 5.58345
12280.8 3.62284
12281.0 2.53326
12281.2 1.86829
12281.5 1.13443
12282.2 0.540282
12282.9 0.317058
12284.3 0.146709
12285.6 0.0847631
12288.4 0.0388319
12291.1 0.0224453
12302.0 0.00624874
12323.9 0.00199569
12367.6 0.000808286
12455.1 0.000445512
12542.6 0.000372266
12630.0 0.000360733
12805.0 0.000429411
12892.4 0.000536196
12936.2 0.000717569
12958.0 0.00125725
12969.0 0.00327851
12974.4 0.0111188
12977.2 0.0408658
12978.5 0.149283
12979.2 0.502643
12979.5 1.46313
12979.7 3.39708
12979.8 6.25990
12979.8 8.63680
12979.9 13.2907
12979.9 20.5707
12980.0 26.5811
12980.1 20.5707
12980.1 13.2908
12980.2 7.94548
12980.2 5.39407
12980.3 2.70227
12980.5 1.07820
12981.0 0.351295
12981.8 0.100216
12983.5 0.0271821
12986.9 0.00748834
12993.7 0.00238820
13007.3 0.00111066
13034.5 0.000843518
13088.8 0.000924780
13143.1 0.00115127
13197.5 0.00152155
13251.8 0.00214833
13306.1 0.00333017
13333.3 0.00437714
13360.5 0.00613713
13374.1 0.00762208
13387.6 0.0102845
13401.2 0.0191688
13408.0 0.0477496
13409.7 0.0756077
13411.4 0.151291
13412.3 0.251220
13413.1 0.512742
13413.5 0.845696
13414.0 1.62888
13414.2 2.50430
13414.4 4.30754
13414.5 6.10790
13414.6 8.84930
13414.7 14.3064
13414.8 24.7921
13414.9 38.9107
13415.0 49.5741
13415.1 38.9104
13415.2 24.7920
13415.3 15.0060
13415.4 9.59939
13415.5 6.54906
13415.6 4.86090
13415.8 2.81590
13416.0 1.86220
13416.4 0.971071
13416.8 0.595984
13417.5 0.293610
13418.3 0.177409
13419.9 0.0894269
13421.4 0.0573971
13427.7 0.0267541
13440.1 0.0231055
13452.6 0.0288942
13458.8 0.0338476
13465.1 0.0405916
13468.2 0.0448527
13471.3 0.0498710
13474.4 0.0558215
13477.5 0.0629102
13480.6 0.0714902
13483.8 0.0819210
13486.9 0.0948423
13490.0 0.110970
13493.1 0.131551
13496.2 0.158115
13499.3 0.193316
13502.4 0.240681
13505.6 0.306323
13508.7 0.398725
13511.8 0.531695
13514.9 0.720894
13520.0 1.15467
13525.0 1.44401
13527.5 1.35800
13530.1 1.15354
13535.1 0.719785
13540.4 0.432182
13545.7 0.276256
13551.0 0.188393
13556.3 0.135546
13561.6 0.101708
13566.9 0.0789843
13577.5 0.0514309
13588.1 0.0360857
13598.7 0.0267354
13619.9 0.0164724
13641.2 0.0114275
13662.4 0.00907171
13673.0 0.00897940
13683.6 0.0108663
13688.9 0.0143072
13694.2 0.0246691
13696.8 0.0391810
13699.5 0.0796123
13700.8 0.134353
13702.1 0.279989
13702.8 0.471234
13703.5 0.947148
13703.8 1.51279
13704.1 2.77764
13704.3 4.13538
13704.5 6.51163
13704.5 8.79050
13704.6 11.8599
13704.7 16.5349
13704.8 23.7799
13704.9 37.9768
13705.0 47.5575
13705.1 37.9763
13705.2 23.7796
13705.4 13.3831
13705.5 7.92129
13705.6 5.13089
13705.8 3.56307
13706.1 1.98683
13706.3 1.25976
13706.9 0.634508
13707.4 0.384503
13708.6 0.184732
13709.7 0.109193
13711.9 0.0522938
13714.1 0.0316675
13718.6 0.0164184
13723.0 0.0108847
13731.9 0.00668809
13740.8 0.00504582
13758.6 0.00361040
13776.4 0.00291132
13811.9 0.00216288
13847.5 0.00177455
13883.1 0.00161404
13918.7 0.00179916
13936.5 0.00226672
13954.2 0.00375209
13972.0 0.0119658
13980.9 0.0441277
13983.1 0.0767756
13985.4 0.166605
13986.5 0.286850
13987.6 0.607297
13988.1 1.02291
13988.4 1.41140
13988.7 2.03900
13989.0 3.25463
13989.1 4.30874
13989.3 5.95687
13989.4 8.72462
13989.5 13.8267
13989.6 18.0871
13989.7 24.3944
13989.7 33.9680
13989.8 47.4902
13989.9 75.0431
13990.0 94.9832
13990.1 75.0423
13990.2 47.4898
13990.3 26.7292
13990.4 16.0636
13990.6 10.5100
13990.7 7.55428
13990.8 5.53393
13990.9 4.21798
13991.1 2.72016
13991.4 1.86798
13991.6 1.37700
13992.1 0.835857
13993.0 0.396435
13993.9 0.231788
13995.8 0.107045
13997.7 0.0616231
14001.4 0.0283447
14005.2 0.0164661
14012.6 0.00787950
14020.1 0.00485735
14035.1 0.00274232
14050.0 0.00213519
14079.9 0.00313960
14094.9 0.00938544
14102.4 0.0343373
14104.3 0.0596824
14106.1 0.130040
14107.1 0.225678
14108.0 0.480573
14108.5 0.815022
14108.9 1.64069
14109.2 2.67903
14109.4 4.94436
14109.5 7.43223
14109.6 11.7012
14109.7 15.6451
14109.7 21.7078
14109.8 31.3400
14109.9 43.9031
14109.9 71.9310
14110.0 87.8073
14110.1 71.9307
14110.1 43.9030
14110.2 27.6113
14110.3 17.3743
14110.4 11.7014
14110.5 8.67598
14110.6 5.10105
14110.8 3.33467
14111.1 1.73397
14111.4 1.05749
14112.0 0.510425
14112.6 0.299509
14113.8 0.139136
14115.0 0.0802102
14119.8 0.0211973
14129.4 0.00585173
14148.6 0.00189241
14187.0 0.000815456
14225.4 0.000567824
14263.9 0.000455396
14340.7 0.000340977
14417.6 0.000278026
14571.3 0.000206765
14725.0 0.000167599
15032.4 0.000135561
15109.3 0.000139088
15186.2 0.000160409
15263.0 0.000292669
15301.5 0.000826544
15320.7 0.00294569
15330.3 0.0113013
15335.1 0.0436731
15337.5 0.165217
15338.1 0.283326
15338.7 0.593696
15339.0 0.983950
15339.3 1.93034
15339.4 3.00665
15339.6 5.27390
15339.7 7.64995
15339.7 11.2236
15339.8 18.9195
15339.9 33.2371
15339.9 54.0524
15340.0 66.2128
15340.1 54.0524
15340.1 32.9755
15340.2 23.5966
15340.2 17.6290
15340.3 9.99554
15340.4 6.30306
15340.5 4.30016
15340.7 2.34631
15340.8 1.46845
15341.2 0.727837
15341.6 0.438228
15342.3 0.206923
15343.0 0.120024
15345.8 0.0313864
15351.5 0.00810153
15362.9 0.00213478
15385.7 0.000625705
15431.3 0.000250857
15522.5 0.000184940
15613.7 0.000337178
15659.3 0.00101650
15682.1 0.00372780
15693.5 0.0144167
15699.2 0.0558811
15700.6 0.0977651
15702.0 0.211809
15702.7 0.362761
15703.4 0.758188
15703.8 1.26355
15704.1 2.44754
15704.3 3.82255
15704.5 6.73170
15704.6 9.54728
15704.7 14.4068
15704.8 23.4957
15704.8 40.2808
15704.9 63.4421
15705.0 80.5631
15705.1 63.4418
15705.2 40.2807
15705.2 26.4933
15705.3 18.7100
15705.4 13.0669
15705.4 9.96057
15705.5 6.05937
15705.7 4.04268
15705.9 2.15019
15706.2 1.32709
15706.7 0.648259
15707.2 0.385932
15708.3 0.179492
15709.3 0.103793
15713.4 0.0269839
15721.7 0.00694635
15738.3 0.00182827
15771.4 0.000533910
15837.6 0.000207594
15970.1 0.000126275
16102.6 0.000114000
16235.0 0.000114148
16500.0 0.000134065
16632.4 0.000171319
16698.7 0.000270717
16731.8 0.000631126
16748.3 0.00204001
16756.6 0.00757728
16760.8 0.0290432
16762.8 0.109718
16763.9 0.391205
16764.1 0.649009
16764.4 1.27546
16764.5 1.98933
16764.6 3.49588
16764.8 7.45424
16764.8 11.6442
16764.9 21.0895
16764.9 32.5615
16765.0 41.9904
16765.1 32.5616
16765.1 20.9013
16765.2 13.7262
16765.2 9.95647
16765.3 5.74738
16765.4 2.53392
16765.6 1.40186
16765.8 0.884929
16766.1 0.443014
16766.4 0.264839
16767.7 0.0721908
16770.3 0.0189583
16775.4 0.00497774
16785.7 0.00138830
16806.3 0.000483604
16847.6 0.000268902
16930.0 0.000261242
17012.4 0.000438777
17053.6 0.00109507
17074.3 0.00364629
17084.6 0.0136449
17089.7 0.0522855
17091.0 0.0910963
17092.3 0.197398
17092.9 0.339957
17093.6 0.708340
17093.9 1.16773
17094.2 2.26853
17094.4 3.50251
17094.5 6.05348
17094.6 8.46309
17094.7 12.5194
17094.8 19.8641
17094.8 25.7357
17094.9 35.2701
17094.9 57.0577
17095.0 70.5410
17095.1 57.0576
17095.1 35.2701
17095.2 24.0833
17095.3 17.5732
17095.4 9.72982
17095.5 6.05361
17095.6 4.09593
17095.8 2.21403
17096.0 1.37872
17096.5 0.679872
17096.9 0.403148
17097.8 0.189034
17098.7 0.109299
17102.2 0.0287141
17109.2 0.00753913
17123.2 0.00212037
17151.3 0.000772225
17207.5 0.000522445
17263.7 0.000840500
17291.7 0.00216265
17305.8 0.00725285
17312.8 0.0268678
17316.3 0.100433
17317.2 0.172203
17318.1 0.361490
17318.5 0.600525
17318.9 1.18350
17319.2 1.85053
17319.4 3.26496
17319.5 4.63666
17319.6 7.00782
17319.7 11.4467
17319.8 19.1980
17319.9 31.2991
17320.0 38.3965
17320.1 31.2989
17320.2 19.1979
17320.3 13.9639
17320.3 9.93015
17320.5 5.54591
17320.6 3.46634
17320.7 2.41251
17321.0 1.32475
17321.3 0.832462
17321.8 0.410193
17322.4 0.245242
17323.5 0.115452
17324.5 0.0669992
17328.9 0.0179475
17337.6 0.00510955
17355.0 0.00217250
17372.4 0.00348757
17381.2 0.0108939
17385.5 0.0397660
17387.7 0.147059
17388.2 0.251378
17388.8 0.515882
17389.0 0.838632
17389.3 1.58776
17389.5 2.43627
17389.6 3.98271
17389.7 7.86180
17389.8 11.9287
17389.9 17.8117
17389.9 29.1824
17390.0 35.6232
17390.1 29.1823
17390.1 17.8117
17390.2 11.9287
17390.3 8.31649
17390.4 4.34119
17390.5 2.60989
17390.7 1.77909
17390.9 0.930800
17391.2 0.578912
17391.7 0.282051
17392.2 0.167877
17394.2 0.0454810
17398.3 0.0122991
17406.4 0.00360867
17422.6 0.00137264
17455.0 0.000843519
17487.5 0.000977215
17503.7 0.00180157
17511.8 0.00504065
17515.8 0.0175284
17517.9 0.0644220
17518.9 0.227521
17519.4 0.736748
17519.6 1.95112
17519.8 4.13848
17519.8 6.42966
17519.9 11.2082
17519.9 17.5101
17520.0 22.3181
17520.1 17.5101
17520.1 11.1107
17520.2 6.42970
17520.3 3.87037
17520.4 1.77171
17520.7 0.634016
17521.2 0.192461
17522.3 0.0540359
17524.6 0.0147935
17529.0 0.00435003
17537.9 0.00167096
17555.7 0.00103051
17591.2 0.000988183
17626.7 0.00116338
17662.3 0.00150324
17697.8 0.00218916
17733.3 0.00399761
17751.1 0.00641505
17768.9 0.0131104
17777.8 0.0222689
17782.2 0.0313136
17786.6 0.0476619
17791.1 0.0819926
17793.3 0.115477
17795.5 0.175021
17796.6 0.223921
17797.7 0.296719
17798.9 0.411896
17800.0 0.609850
17801.1 0.993121
17801.6 1.33902
17802.2 1.88655
17802.7 2.86643
17803.3 4.76804
17803.6 6.50648
17803.9 9.28987
17804.1 13.9690
17804.4 21.6061
17804.7 34.4007
17805.0 42.8604
17805.3 33.9448
17805.6 21.2508
17806.0 12.3653
17806.3 7.82591
17806.6 5.30325
17806.9 3.79920
17807.3 2.81993
17807.6 2.18631
17808.3 1.41959
17808.9 0.988443
17809.6 0.730001
17810.9 0.444302
17812.3 0.297740
17813.6 0.213912
17814.9 0.160860
17816.2 0.125664
17818.9 0.0828287
17821.5 0.0588668
17826.8 0.0344306
17832.1 0.0228557
17837.4 0.0165119
17848.0 0.0101752
17890.4 0.00440310
17911.7 0.00402312
17932.9 0.00410978
17975.3 0.00529009
17996.5 0.00649451
18017.7 0.00838069
18038.9 0.0114497
18060.1 0.0168192
18081.3 0.0274018
18091.9 0.0369869
18097.2 0.0437967
18102.5 0.0526738
18107.8 0.0645576
18110.5 0.0720356
18113.1 0.0808730
18115.8 0.0914117
18118.4 0.104105
18121.1 0.119562
18123.7 0.138614
18126.4 0.162411
18129.0 0.192571
18131.7 0.231402
18134.3 0.282232
18137.0 0.349876
18139.6 0.441200
18142.3 0.565461
18144.9 0.733115
18150.0 1.17243
18155.0 1.46482
18157.5 1.37811
18160.1 1.17159
18165.1 0.732305
18170.4 0.439009
18175.8 0.280040
18181.1 0.190696
18186.5 0.137143
18191.8 0.102878
18197.1 0.0798799
18207.8 0.0519878
18218.5 0.0364655
18229.1 0.0270074
18250.5 0.0166091
18271.8 0.0114238
18293.2 0.00876596
18303.8 0.00826973
18314.5 0.00901968
18325.2 0.0168459
18330.5 0.0496036
18333.2 0.173801
18333.9 0.295473
18334.5 0.609394
18334.9 1.01729
18335.2 1.98021
18335.4 3.11245
18335.5 5.33244
18335.6 7.75002
18335.7 11.4715
18335.8 18.2250
18335.8 23.6381
18335.9 32.6823
18335.9 52.7270
18336.0 65.3605
18336.1 52.7268
18336.1 32.6822
18336.2 19.4160
18336.3 12.1049
18336.4 8.11187
18336.5 5.99920
18336.6 3.40935
18336.8 2.23950
18337.1 1.15164
18337.4 0.699119
18338.0 0.337189
18338.6 0.198861
18341.1 0.0559735
18346.1 0.0176236
18356.0 0.00740464
18365.9 0.00524280
18375.8 0.00433683
18395.6 0.00350368
18415.5 0.00317532
18435.3 0.00325243
18455.1 0.00424676
18475.0 0.0108134
18484.9 0.0371226
18487.3 0.0637697
18489.8 0.137360
18491.1 0.235919
18492.3 0.498686
18492.9 0.835131
18493.5 1.67281
18493.9 2.65629
18494.0 3.53663
18494.2 4.81677
18494.3 7.09141
18494.5 10.9518
18494.6 18.5456
18494.7 25.6281
18494.8 34.8055
18494.9 56.5609
18495.0 69.6117
18495.1 56.5602
18495.2 34.8052
18495.3 23.5757
18495.4 16.5528
18495.5 11.6807
18495.6 8.85184
18495.8 5.39698
18496.0 3.67627
18496.2 2.61254
18496.3 1.97677
18496.7 1.22791
18497.5 0.604423
18498.2 0.358431
18499.7 0.168520
18501.2 0.0979098
18504.1 0.0454645
18507.1 0.0265337
18513.0 0.0127105
18518.9 0.00778789
18530.8 0.00419450
18542.6 0.00289295
18566.3 0.00190582
18590.0 0.00152268
18637.4 0.00122781
18684.8 0.00118450
18732.2 0.00137415
18779.6 0.00215609
18803.3 0.00331759
18827.0 0.00665582
18838.9 0.0112910
18850.7 0.0242970
18856.6 0.0420883
18859.6 0.0595626
18862.6 0.0909140
18865.5 0.155897
18867.0 0.218346
18868.5 0.327529
18870.0 0.544704
18870.7 0.744243
18871.4 1.07616
18872.2 1.68716
18872.6 2.20413
18872.9 2.99239
18873.3 4.27022
18873.7 6.50629
18874.0 10.7831
18874.2 14.4880
18874.4 19.4911
18874.7 31.2035
18875.0 39.0185
18875.3 31.2020
18875.6 19.4902
18876.0 11.1109
18876.3 6.92914
18876.6 4.64862
18877.0 3.30692
18877.3 2.46216
18877.7 1.89982
18878.3 1.22523
18879.0 0.853417
18879.7 0.627733
18881.1 0.379902
18882.4 0.253585
18883.8 0.181611
18885.1 0.136463
18886.5 0.106305
18889.2 0.0696912
18892.0 0.0493120
18897.4 0.0284924
18902.9 0.0186364
18908.3 0.0132075
18919.2 0.00774438
18941.0 0.00379700
18962.8 0.00241593
19006.4 0.00148251
19050.0 0.00128533
19137.2 0.00243685
19159.0 0.00386778
19180.8 0.00797891
19191.7 0.0136810
19202.6 0.0296504
19208.1 0.0514118
19210.8 0.0728176
19213.5 0.110995
19216.2 0.190158
19217.6 0.265686
19219.0 0.397029
19220.3 0.656072
19221.0 0.891912
19221.7 1.28033
19222.4 1.98467
19222.7 2.57141
19223.0 3.45215
19223.4 4.84930
19223.7 7.21934
19224.1 11.5498
19224.4 19.9680
19224.7 32.0774
19225.0 39.9397
19225.3 32.0759
19225.6 19.9670
19225.8 13.6693
19226.1 9.69809
19226.3 7.12848
19226.5 5.41524
19227.0 3.35819
19227.5 2.28500
19227.9 1.63853
19228.4 1.23698
19229.3 0.774585
19230.2 0.527497
19231.2 0.383227
19232.1 0.290080
19233.0 0.227730
19234.9 0.150435
19236.7 0.106940
19240.4 0.0620371
19244.1 0.0404858
19247.8 0.0285665
19255.2 0.0164749
19262.7 0.0107832
19270.1 0.00765829
19284.9 0.00452265
19314.5 0.00225660
19344.1 0.00145902
19403.4 0.000898883
19462.7 0.000729226
19521.9 0.000696735
19581.2 0.000777603
19610.8 0.000909634
19640.5 0.00126979
19670.1 0.00310595
19684.9 0.0101963
19692.3 0.0373522
19694.2 0.0642882
19696.0 0.137015
19697.0 0.232440
19697.9 0.473456
19698.4 0.773450
19698.8 1.45289
19699.0 2.17730
19699.3 3.58132
19699.4 4.88458
19699.5 6.74990
19699.6 10.0790
19699.7 15.4805
19699.9 24.9188
19700.0 30.9613
19700.1 24.9185
19700.3 15.4803
19700.4 9.07445
19700.6 5.63003
19700.7 3.76111
19700.9 2.72442
19701.2 1.55059
19701.4 1.00747
19702.0 0.515642
19702.6 0.314290
19703.8 0.151031
19705.0 0.0885645
19707.3 0.0413037
19709.6 0.0240082
19719.0 0.00674976
19737.7 0.00232671
19775.2 0.00128694
19812.7 0.00120059
19850.1 0.00129324
19925.1 0.00178235
19962.5 0.00223248
20000.0 0.00296032
20000.0 0.169228
25000.0 0.143777
30000.0 0.125633
35000.0 0.111551
40000.0 0.100622
50000.0 0.0851207
60000.0 0.0749128
70000.0 0.0674858
80000.0 0.0620086
99999.9 0.0552520
100000 0.0552466
144665 0.0483800
150000 0.0477543
200000 0.0460804
206067 0.0461360
206246 0.0461377
206247 0.0461377
206269 0.0461379
206270 0.0461379
226973 0.0463164
250000 0.0464975
300000 0.0476872
420000 0.0511725
420000 0.0511725
485906 0.0527603
485910 0.0527604
485956 0.0527614
485957 0.0527615
490000 0.0528532
500000 0.0530775
541007 0.0542439
541010 0.0542440
541231 0.0542501
541232 0.0542501
562500 0.0548298
599694 0.0558066
600000 0.0558144
600000 0.0558144
616012 0.0562213
625000 0.0564463
664748 0.0574143
664817 0.0574159
686670 0.0579303
686674 0.0579304
687500 0.0579496
700000 0.0582383
701411 0.0582761
701701 0.0582839
726686 0.0589448
726690 0.0589449
726762 0.0589468
726763 0.0589468
726989 0.0589527
728303 0.0589870
728606 0.0589949
742370 0.0593518
742471 0.0593544
742526 0.0593558
750000 0.0595477
760838 0.0598237
760917 0.0598257
773939 0.0601537
786380 0.0604637
786385 0.0604638
786486 0.0604663
794556 0.0606656
795510 0.0606890
795512 0.0606891
800000 0.0607992
803275 0.0608917
812500 0.0611511
829228 0.0616168
829321 0.0616194
849653 0.0621775
875000 0.0628616
880259 0.0630020
880260 0.0630020
880356 0.0630046
880457 0.0629262
880460 0.0629239
897344 0.0512051
897445 0.0511426
900000 0.0495892
937500 0.0440895
957664 0.0414688
957665 0.0414687
957770 0.0414556
957772 0.0414553
957873 0.0414428
999999 0.0366120
1.00000E+06 0.0366119
1.00334E+06 0.0365919
1.03516E+06 0.0364054
1.03520E+06 0.0364052
1.03527E+06 0.0364048
1.03528E+06 0.0364047
1.05014E+06 0.0363199
1.05024E+06 0.0363193
1.06781E+06 0.0362208
1.06790E+06 0.0362203
1.06793E+06 0.0362202
1.06907E+06 0.0362138
1.07026E+06 0.0362072
1.07444E+06 0.0361842
1.08510E+06 0.0361257
1.08511E+06 0.0361257
1.08552E+06 0.0361234
1.10397E+06 0.0360239
1.10417E+06 0.0360229
1.12832E+06 0.0358955
1.12840E+06 0.0358951
1.12842E+06 0.0358950
1.12854E+06 0.0358944
1.12855E+06 0.0358943
1.12863E+06 0.0358939
1.12874E+06 0.0358933
1.13815E+06 0.0358446
1.14747E+06 0.0357968
1.14757E+06 0.0357963
1.15997E+06 0.0357333
1.16056E+06 0.0357304
1.16240E+06 0.0357211
1.20000E+06 0.0355355
1.20722E+06 0.0355006
1.23549E+06 0.0353663
1.25000E+06 0.0352988
1.27630E+06 0.0357223
1.27630E+06 0.0357224
1.28180E+06 0.0358104
1.28625E+06 0.0358816
1.29736E+06 0.0360588
1.29797E+06 0.0360685
1.31599E+06 0.0363545
1.31614E+06 0.0363569
1.32392E+06 0.0364798
1.36676E+06 0.0371514
1.38426E+06 0.0374231
1.39062E+06 0.0375215
1.40000E+06 0.0376663
1.42417E+06 0.0380374
1.44069E+06 0.0382896
1.44085E+06 0.0382920
1.44706E+06 0.0383864
1.44823E+06 0.0384042
1.45226E+06 0.0384654
1.45722E+06 0.0385406
1.46206E+06 0.0386139
1.47807E+06 0.0388555
1.50000E+06 0.0391847
1.50000E+06 0.0391847
1.51345E+06 0.0394630
1.51355E+06 0.0394650
1.52556E+06 0.0397131
1.52566E+06 0.0397151
1.52607E+06 0.0397236
1.52610E+06 0.0397242
1.53138E+06 0.0398331
1.54768E+06 0.0401689
1.55700E+06 0.0403605
1.55718E+06 0.0403642
1.55738E+06 0.0403683
1.56128E+06 0.0404484
1.56819E+06 0.0405903
1.56930E+06 0.0406130
1.58139E+06 0.0408609
1.59060E+06 0.0410494
1.59061E+06 0.0410492
1.59645E+06 0.0408398
1.63724E+06 0.0394280
1.63742E+06 0.0394220
1.63815E+06 0.0393975
1.64300E+06 0.0392354
1.64310E+06 0.0392321
1.64512E+06 0.0391649
1.64522E+06 0.0391616
1.66248E+06 0.0385958
1.66258E+06 0.0385926
1.68775E+06 0.0377924
1.70000E+06 0.0374132
1.70089E+06 0.0373859
1.72514E+06 0.0366552
1.72861E+06 0.0365526
1.75000E+06 0.0359311
1.76071E+06 0.0359415
1.76082E+06 0.0359413
1.76122E+06 0.0359407
1.77662E+06 0.0359179
1.78140E+06 0.0359109
1.78353E+06 0.0359078
1.78827E+06 0.0359008
1.80160E+06 0.0358814
1.81907E+06 0.0358561
1.86620E+06 0.0357893
1.88390E+06 0.0357646
1.88422E+06 0.0357642
1.88433E+06 0.0357614
1.88916E+06 0.0356388
1.90028E+06 0.0353593
1.90953E+06 0.0351297
1.92736E+06 0.0346943
1.92740E+06 0.0346934
1.95860E+06 0.0339539
1.98040E+06 0.0334534
1.98524E+06 0.0333440
1.98566E+06 0.0333346
1.99911E+06 0.0330340
1.99921E+06 0.0330318
2.00000E+06 0.0330143
2.00596E+06 0.0330063
2.01000E+06 0.0330009
2.01000E+06 0.0330009
2.01148E+06 0.0329990
2.02126E+06 0.0329860
2.02296E+06 0.0329837
2.03444E+06 0.0329686
2.03829E+06 0.0329635
2.03830E+06 0.0329635
2.03839E+06 0.0329634
2.04592E+06 0.0329536
2.05320E+06 0.0329441
2.05353E+06 0.0329436
2.05740E+06 0.0329386
2.05859E+06 0.0329371
2.05902E+06 0.0329365
2.06060E+06 0.0329344
2.06888E+06 0.0329237
2.07511E+06 0.0329157
2.08036E+06 0.0329089
2.08961E+06 0.0328971
2.09184E+06 0.0328862
2.09403E+06 0.0328755
2.09450E+06 0.0328733
2.09893E+06 0.0328517
2.10603E+06 0.0328173
2.11313E+06 0.0327830
2.11764E+06 0.0327614
2.12022E+06 0.0327490
2.12262E+06 0.0327375
2.12648E+06 0.0327190
2.12659E+06 0.0327185
2.12731E+06 0.0327151
2.13441E+06 0.0326813
2.14150E+06 0.0326477
2.14860E+06 0.0326142
2.15220E+06 0.0325972
2.15570E+06 0.0325808
2.16279E+06 0.0325476
2.16988E+06 0.0325146
2.17698E+06 0.0324816
2.17781E+06 0.0324778
2.18407E+06 0.0324489
2.19117E+06 0.0324162
2.19827E+06 0.0323837
2.20342E+06 0.0323602
2.20536E+06 0.0323513
2.20769E+06 0.0323407
2.21245E+06 0.0323191
2.21955E+06 0.0322870
2.22664E+06 0.0322551
2.22903E+06 0.0322444
2.22950E+06 0.0322422
2.22964E+06 0.0322416
2.23374E+06 0.0322232
2.24084E+06 0.0321915
2.24264E+06 0.0321835
2.24671E+06 0.0321654
2.24691E+06 0.0321645
2.24793E+06 0.0321600
2.25000E+06 0.0321508
2.25502E+06 0.0321286
2.25800E+06 0.0321154
2.26212E+06 0.0320973
2.26533E+06 0.0320831
2.26860E+06 0.0320688
2.26921E+06 0.0320661
2.27631E+06 0.0320350
2.28341E+06 0.0320041
2.28760E+06 0.0319859
2.29050E+06 0.0319733
2.29759E+06 0.0319427
2.30469E+06 0.0319121
2.30660E+06 0.0319039
2.30765E+06 0.0318994
2.31178E+06 0.0318817
2.31864E+06 0.0318524
2.31888E+06 0.0318499
2.31985E+06 0.0318398
2.31985E+06 0.0318398
2.32088E+06 0.0318291
2.32598E+06 0.0317763
2.33307E+06 0.0317033
2.33863E+06 0.0316463
2.34016E+06 0.0316306
2.34726E+06 0.0315582
2.35435E+06 0.0314863
2.35740E+06 0.0314555
2.35744E+06 0.0314551
2.36145E+06 0.0314147
2.36362E+06 0.0313929
2.36774E+06 0.0313515
2.36785E+06 0.0313504
2.36815E+06 0.0313474
2.36855E+06 0.0313434
2.37564E+06 0.0312726
2.38273E+06 0.0312022
2.38983E+06 0.0311321
2.39520E+06 0.0310793
2.39692E+06 0.0310624
2.40402E+06 0.0309930
2.41112E+06 0.0309239
2.41821E+06 0.0308553
2.41836E+06 0.0308539
2.41870E+06 0.0308506
2.41891E+06 0.0308473
2.42150E+06 0.0308060
2.42530E+06 0.0307457
2.42972E+06 0.0306759
2.43240E+06 0.0306336
2.43406E+06 0.0306075
2.43949E+06 0.0305224
2.43999E+06 0.0305146
2.44473E+06 0.0304407
2.44659E+06 0.0304118
2.44903E+06 0.0303739
2.44953E+06 0.0303718
2.44953E+06 0.0303718
2.45162E+06 0.0303631
2.45172E+06 0.0303627
2.45280E+06 0.0303582
2.45369E+06 0.0303545
2.46078E+06 0.0303251
2.46405E+06 0.0303116
2.46627E+06 0.0303024
2.46787E+06 0.0302958
2.47497E+06 0.0302665
2.47524E+06 0.0302654
2.48206E+06 0.0302375
2.48916E+06 0.0302085
2.49494E+06 0.0301849
2.49626E+06 0.0301796
2.50000E+06 0.0301644
2.50335E+06 0.0301508
2.50679E+06 0.0301369
2.50709E+06 0.0301357
2.51044E+06 0.0301222
2.51101E+06 0.0301199
2.51754E+06 0.0300936
2.52000E+06 0.0300837
2.52000E+06 0.0300837
2.52050E+06 0.0300817
2.52463E+06 0.0300652
2.52629E+06 0.0300585
2.52781E+06 0.0300524
2.53173E+06 0.0300368
2.53212E+06 0.0300352
2.53883E+06 0.0300085
2.54592E+06 0.0299804
2.54725E+06 0.0299752
2.54735E+06 0.0299748
2.55301E+06 0.0299524
2.55473E+06 0.0299456
2.55483E+06 0.0299453
2.55607E+06 0.0299404
2.55790E+06 0.0299332
2.56011E+06 0.0299245
2.56054E+06 0.0299228
2.56055E+06 0.0299228
2.56092E+06 0.0299213
2.56110E+06 0.0299154
2.56112E+06 0.0299148
2.56112E+06 0.0299148
2.56712E+06 0.0297201
2.56720E+06 0.0297175
2.57430E+06 0.0294893
2.58140E+06 0.0292635
2.58849E+06 0.0290403
2.58908E+06 0.0290219
2.59437E+06 0.0288570
2.59437E+06 0.0288570
2.59457E+06 0.0288508
2.59558E+06 0.0288085
2.60268E+06 0.0285134
2.60977E+06 0.0282224
2.61615E+06 0.0279639
2.61687E+06 0.0279349
2.62128E+06 0.0277581
2.62159E+06 0.0277457
2.62397E+06 0.0276510
2.63106E+06 0.0273711
2.63803E+06 0.0270995
2.63815E+06 0.0270964
2.63955E+06 0.0270603
2.63955E+06 0.0270602
2.64107E+06 0.0270211
2.64168E+06 0.0270054
2.64525E+06 0.0269138
2.64645E+06 0.0268831
2.65234E+06 0.0267331
2.65944E+06 0.0265539
2.66044E+06 0.0265287
2.66172E+06 0.0264967
2.66654E+06 0.0263763
2.67363E+06 0.0262006
2.67699E+06 0.0261180
2.68072E+06 0.0260266
2.68782E+06 0.0258540
2.69226E+06 0.0257468
2.69491E+06 0.0256831
2.70201E+06 0.0255136
2.70753E+06 0.0253830
2.70911E+06 0.0253457
2.71620E+06 0.0251796
2.72280E+06 0.0250263
2.72329E+06 0.0250149
2.73039E+06 0.0248516
2.73748E+06 0.0246899
2.73807E+06 0.0246765
2.74458E+06 0.0245295
2.75168E+06 0.0243706
2.75334E+06 0.0243336
2.75877E+06 0.0242133
2.76586E+06 0.0240574
2.76861E+06 0.0239973
2.76923E+06 0.0239838
2.76943E+06 0.0239794
2.77296E+06 0.0239492
2.77363E+06 0.0239435
2.78005E+06 0.0238888
2.78715E+06 0.0238285
2.78973E+06 0.0238067
2.79029E+06 0.0238020
2.79069E+06 0.0237986
2.79301E+06 0.0237791
2.79425E+06 0.0237686
2.79783E+06 0.0237385
2.79783E+06 0.0237385
2.80134E+06 0.0237091
2.80843E+06 0.0236499
2.81553E+06 0.0235908
2.81657E+06 0.0235822
2.82262E+06 0.0235322
2.82972E+06 0.0234738
2.83530E+06 0.0234281
2.83594E+06 0.0234228
2.83682E+06 0.0234156
2.84391E+06 0.0233579
2.85081E+06 0.0233019
2.85100E+06 0.0233004
2.85810E+06 0.0232431
2.86519E+06 0.0231862
2.86636E+06 0.0231768
2.86636E+06 0.0231768
2.87229E+06 0.0231295
2.87936E+06 0.0230733
2.87939E+06 0.0230730
2.88098E+06 0.0230604
2.88100E+06 0.0230603
2.88648E+06 0.0230170
2.88681E+06 0.0230143
2.89357E+06 0.0229611
2.90038E+06 0.0229078
2.90067E+06 0.0229055
2.90103E+06 0.0229027
2.90103E+06 0.0229027
2.90325E+06 0.0228854
2.90325E+06 0.0228854
2.90776E+06 0.0228503
2.91486E+06 0.0227952
2.92196E+06 0.0227404
2.92416E+06 0.0227234
2.92905E+06 0.0226859
2.93614E+06 0.0226317
2.94324E+06 0.0225777
2.94507E+06 0.0225638
2.95033E+06 0.0225240
2.95743E+06 0.0224705
2.96453E+06 0.0224172
2.96597E+06 0.0224064
2.97162E+06 0.0223643
2.97871E+06 0.0223116
2.98581E+06 0.0222591
2.98688E+06 0.0222512
2.98755E+06 0.0222463
2.99000E+06 0.0222282
2.99000E+06 0.0222282
2.99290E+06 0.0222069
2.99685E+06 0.0221779
2.99690E+06 0.0221776
2.99695E+06 0.0221772
2.99695E+06 0.0221772
3.00000E+06 0.0221549
3.03030E+06 0.0218003
3.03120E+06 0.0217899
3.03125E+06 0.0217893
3.03160E+06 0.0217852
3.03190E+06 0.0217818
3.03292E+06 0.0217700
3.04000E+06 0.0216887
3.06250E+06 0.0214334
3.09375E+06 0.0210868
3.09632E+06 0.0210587
3.09773E+06 0.0210433
3.12500E+06 0.0207492
3.12520E+06 0.0207470
3.12523E+06 0.0207467
3.15625E+06 0.0204203
3.18750E+06 0.0200997
3.19817E+06 0.0199922
3.21619E+06 0.0198126
3.21875E+06 0.0197873
3.22371E+06 0.0197384
3.25000E+06 0.0194827
3.28125E+06 0.0191856
3.30646E+06 0.0189512
3.30712E+06 0.0189451
3.31250E+06 0.0188958
3.34375E+06 0.0186130
3.37500E+06 0.0183370
3.40452E+06 0.0180824
3.40608E+06 0.0180691
3.40625E+06 0.0180676
3.41362E+06 0.0180050
3.43750E+06 0.0178046
3.46410E+06 0.0175856
3.46875E+06 0.0175477
3.50000E+06 0.0172968
3.50000E+06 0.0172968
3.53125E+06 0.0170517
3.53530E+06 0.0170203
3.53610E+06 0.0170141
3.53680E+06 0.0170087
3.53760E+06 0.0170025
3.56250E+06 0.0168121
3.57924E+06 0.0166860
3.58087E+06 0.0166738
3.59375E+06 0.0165780
3.61959E+06 0.0163883
3.62153E+06 0.0163743
3.62500E+06 0.0163491
3.65625E+06 0.0161253
3.65927E+06 0.0161039
3.66094E+06 0.0160921
3.66458E+06 0.0160665
3.68750E+06 0.0159064
3.71875E+06 0.0156923
3.72848E+06 0.0156266
3.72850E+06 0.0156265
3.75000E+06 0.0154828
3.78125E+06 0.0152779
3.81250E+06 0.0150773
3.84211E+06 0.0148911
3.84375E+06 0.0148809
3.87500E+06 0.0146887
3.90625E+06 0.0145005
3.92106E+06 0.0144126
3.93750E+06 0.0143161
3.96875E+06 0.0141355
4.00000E+06 0.0139586
4.02000E+06 0.0137689
4.02000E+06 0.0137689
4.06250E+06 0.0133773
4.12500E+06 0.0128285
4.18750E+06 0.0123099
4.21930E+06 0.0120570
4.25000E+06 0.0118196
4.31250E+06 0.0113555
4.37500E+06 0.0109159
4.43750E+06 0.0104992
4.45062E+06 0.0104145
4.50000E+06 0.0101040
4.51000E+06 0.0100426
4.51000E+06 0.0100426
4.56250E+06 0.00972873
4.62500E+06 0.00937224
4.68750E+06 0.00903335
4.69462E+06 0.00899581
4.75000E+06 0.00871096
4.81250E+06 0.00840406
4.82331E+06 0.00835248
4.87500E+06 0.00811173
4.93750E+06 0.00783310
4.95200E+06 0.00777033
5.00000E+06 0.00756737
5.00000E+06 0.00756736
5.12500E+06 0.00686816
5.21019E+06 0.00643769
5.25000E+06 0.00624814
5.37500E+06 0.00569676
5.48524E+06 0.00526029
5.50000E+06 0.00520508
5.50152E+06 0.00519944
5.62500E+06 0.00476550
5.66944E+06 0.00462051
5.68506E+06 0.00457086
5.75000E+06 0.00437151
5.87500E+06 0.00401754
6.00000E+06 0.00369880
6.02000E+06 0.00364081
6.02000E+06 0.00364080
6.25328E+06 0.00303936
6.39579E+06 0.00273090
6.48074E+06 0.00256503
6.56924E+06 0.00240501
6.88521E+06 0.00192409
6.88694E+06 0.00192179
6.88766E+06 0.00192084
6.89675E+06 0.00190885
6.99205E+06 0.00178841
7.00000E+06 0.00177878
7.01668E+06 0.00175862
7.03335E+06 0.00173874
7.04000E+06 0.00173089
7.04000E+06 0.00173089
7.04941E+06 0.00171985
7.06546E+06 0.00170121
7.08698E+06 0.00167661
7.10850E+06 0.00165244
7.13002E+06 0.00162868
7.15154E+06 0.00160534
7.17306E+06 0.00158240
7.19458E+06 0.00155986
7.21610E+06 0.00153770
7.23762E+06 0.00151592
7.26460E+06 0.00148914
7.29158E+06 0.00146293
7.31856E+06 0.00143727
7.34555E+06 0.00141216
7.37253E+06 0.00138758
7.39951E+06 0.00136351
7.42649E+06 0.00133994
7.44533E+06 0.00132378
7.45347E+06 0.00131686
7.45430E+06 0.00131616
7.45598E+06 0.00131474
7.48331E+06 0.00129190
7.50688E+06 0.00127487
7.53044E+06 0.00125812
7.54412E+06 0.00124852
7.54566E+06 0.00124745
7.54755E+06 0.00124613
7.56445E+06 0.00123442
7.58271E+06 0.00122193
7.60097E+06 0.00120958
7.61923E+06 0.00119740
7.63750E+06 0.00118536
7.65576E+06 0.00117348
7.67402E+06 0.00116174
7.69228E+06 0.00115014
7.71054E+06 0.00113869
7.71191E+06 0.00113784
7.73734E+06 0.00112214
7.75650E+06 0.00111049
7.77567E+06 0.00109898
7.79483E+06 0.00108763
7.81399E+06 0.00107642
7.83315E+06 0.00106535
7.85232E+06 0.00105442
7.87148E+06 0.00104363
7.89064E+06 0.00103297
7.89065E+06 0.00103297
7.91799E+06 0.00101800
7.94533E+06 0.00100330
7.97266E+06 0.000988864
8.00000E+06 0.000974683
8.00000E+06 0.000974682
8.05977E+06 0.000957500
8.11954E+06 0.000940745
8.17930E+06 0.000924403
8.23907E+06 0.000908460
8.29411E+06 0.000894122
8.33674E+06 0.000883236
8.37937E+06 0.000872537
8.38459E+06 0.000871239
8.42982E+06 0.000860112
8.47504E+06 0.000849186
8.48528E+06 0.000846739
8.53426E+06 0.000841447
8.58324E+06 0.000836218
8.58822E+06 0.000835690
8.64442E+06 0.000829774
8.70061E+06 0.000823937
8.73003E+06 0.000820913
8.73046E+06 0.000820869
8.73143E+06 0.000820770
8.73609E+06 0.000820293
8.73885E+06 0.000820011
8.82787E+06 0.000811008
8.91563E+06 0.000802315
8.93361E+06 0.000800557
8.99000E+06 0.000795088
8.99000E+06 0.000795088
9.00000E+06 0.000794126
9.12011E+06 0.000810154
9.24021E+06 0.000826289
9.25057E+06 0.000827686
9.25523E+06 0.000828314
9.31639E+06 0.000836578
9.32621E+06 0.000837908
9.39440E+06 0.000847159
9.39472E+06 0.000847203
9.39988E+06 0.000847904
9.40010E+06 0.000847934
9.47852E+06 0.000858619
9.48683E+06 0.000859754
9.62468E+06 0.000886995
9.62972E+06 0.000888000
9.74004E+06 0.000910143
9.74409E+06 0.000910962
9.77649E+06 0.000917524
9.78944E+06 0.000920154
9.84274E+06 0.000931020
9.89603E+06 0.000941955
9.89837E+06 0.000942436
9.94919E+06 0.000952929
1.00000E+07 0.000963484
1.00300E+07 0.000966688
1.00300E+07 0.000966690
1.00305E+07 0.000966743
1.00610E+07 0.000970003
1.00915E+07 0.000973264
1.01220E+07 0.000976526
1.01525E+07 0.000979789
1.01830E+07 0.000983052
1.02136E+07 0.000986318
1.02441E+07 0.000989583
1.02746E+07 0.000992851
1.03051E+07 0.000996119
1.03356E+07 0.000999389
1.03661E+07 0.00100266
1.03966E+07 0.00100593
1.04271E+07 0.00100920
1.04576E+07 0.00101248
1.04881E+07 0.00101575
1.05000E+07 0.00101786
1.05277E+07 0.00102276
1.05554E+07 0.00102768
1.05831E+07 0.00103261
1.06108E+07 0.00103754
1.06384E+07 0.00104249
1.06661E+07 0.00104745
1.06938E+07 0.00105242
1.07215E+07 0.00105740
1.07563E+07 0.00106368
1.07911E+07 0.00106997
1.08259E+07 0.00107628
1.08608E+07 0.00108260
1.08956E+07 0.00108895
1.09304E+07 0.00109531
1.09652E+07 0.00110169
1.10000E+07 0.00110808
1.10743E+07 0.00110948
1.11485E+07 0.00111087
1.11988E+07 0.00111180
1.12491E+07 0.00111274
1.13091E+07 0.00111385
1.13691E+07 0.00111495
1.14291E+07 0.00111605
1.14891E+07 0.00111715
1.15000E+07 0.00111735
1.15732E+07 0.00111867
1.16463E+07 0.00112000
1.17195E+07 0.00112131
1.17926E+07 0.00112262
1.18321E+07 0.00112332
1.18715E+07 0.00112402
1.19358E+07 0.00112516
1.20000E+07 0.00112629
1.20000E+07 0.00112629
1.21029E+07 0.00111992
1.22058E+07 0.00111365
1.23087E+07 0.00110746
1.24117E+07 0.00110135
1.25146E+07 0.00109533
1.26175E+07 0.00108940
1.27204E+07 0.00108354
1.28233E+07 0.00107776
1.28314E+07 0.00107731
1.29157E+07 0.00107263
1.30000E+07 0.00106801
1.31250E+07 0.00106005
1.32500E+07 0.00105222
1.33750E+07 0.00104452
1.35000E+07 0.00103694
1.36035E+07 0.00103077
1.37069E+07 0.00102468
1.38342E+07 0.00101730
1.39615E+07 0.00101003
1.39800E+07 0.00100899
1.39800E+07 0.00100899
1.40000E+07 0.00100786
1.41806E+07 0.00100060
1.43611E+07 0.000993474
1.43671E+07 0.000993239
1.43694E+07 0.000993150
1.45000E+07 0.000988090
1.45009E+07 0.000988055
1.45019E+07 0.000988017
1.45039E+07 0.000987940
1.45058E+07 0.000987867
1.45078E+07 0.000987790
1.45117E+07 0.000987640
1.45156E+07 0.000987490
1.45195E+07 0.000987340
1.45234E+07 0.000987191
1.45312E+07 0.000986891
1.45390E+07 0.000986592
1.45468E+07 0.000986294
1.45625E+07 0.000985693
1.45781E+07 0.000985098
1.45937E+07 0.000984503
1.46250E+07 0.000983313
1.46562E+07 0.000982131
1.46875E+07 0.000980948
1.47187E+07 0.000979774
1.47500E+07 0.000978600
1.47812E+07 0.000977433
1.48125E+07 0.000976266
1.48750E+07 0.000973948
1.49597E+07 0.000970831
1.50000E+07 0.000969358
1.50926E+07 0.000967606
1.51852E+07 0.000965868
1.54015E+07 0.000961861
1.56177E+07 0.000957927
1.56321E+07 0.000957667
1.56503E+07 0.000957340
1.56847E+07 0.000956722
1.57274E+07 0.000955958
1.58773E+07 0.000953296
1.60000E+07 0.000951141
1.61365E+07 0.000951034
1.61510E+07 0.000951022
1.62958E+07 0.000950909
1.63869E+07 0.000950839
1.64472E+07 0.000950792
1.67032E+07 0.000950597
1.67087E+07 0.000950593
1.67104E+07 0.000950591
1.69056E+07 0.000950444
1.69900E+07 0.000950381
1.69900E+07 0.000950381
1.70000E+07 0.000950374
1.72289E+07 0.000953353
1.72426E+07 0.000953530
1.74015E+07 0.000955579
1.76685E+07 0.000958990
1.79355E+07 0.000962361
1.79355E+07 0.000962361
1.79482E+07 0.000962521
1.79483E+07 0.000962522
1.80000E+07 0.000963170
1.82500E+07 0.000969202
1.85000E+07 0.000975189
1.87500E+07 0.000981132
1.90000E+07 0.000987031
1.95000E+07 0.00100350
2.00000E+07 0.00101982