Sn-124(n,tot) ENDF/B-VII.1
Energy(eV) XS(b)
1.00000E-05 11.5089
1.25000E-05 10.7991
1.50000E-05 10.2752
2.00000E-05 9.53977
2.75000E-05 8.84001
3.50000E-05 8.37948
4.25000E-05 8.04701
5.00000E-05 7.79250
6.25000E-05 7.47508
7.50000E-05 7.24077
0.000100000 6.91187
0.000125000 6.68742
0.000150000 6.52174
0.000200000 6.28918
0.000275000 6.06790
0.000350000 5.92227
0.000425000 5.81713
0.000500000 5.73665
0.000625000 5.63627
0.000750000 5.56218
0.00100000 5.45817
0.00125000 5.38720
0.00150000 5.33480
0.00200000 5.26126
0.00275000 5.19129
0.00350000 5.14524
0.00425000 5.11199
0.00500000 5.08654
0.00625000 5.05480
0.00750000 5.03137
0.0100000 4.99848
0.0125000 4.97603
0.0150000 4.95946
0.0200000 4.93620
0.0253000 4.91952
0.0314750 4.90569
0.0376500 4.89542
0.0500000 4.88091
0.0625000 4.87085
0.0750000 4.86342
0.100000 4.85298
0.125000 4.84584
0.150000 4.84056
0.200000 4.83311
0.275000 4.82597
0.350000 4.82122
0.500000 4.81506
0.750000 4.80904
1.00000 4.80524
1.50000 4.80032
2.00000 4.79697
2.75000 4.79322
3.50000 4.79023
5.00000 4.78536
7.50000 4.77874
10.0000 4.77303
15.0000 4.76311
20.0000 4.75473
27.5000 4.74517
31.2500 4.74226
35.0000 4.74133
38.7500 4.74357
42.5000 4.75149
46.2500 4.77099
48.1250 4.78935
50.0000 4.81867
51.4846 4.85524
52.9692 4.91285
54.4538 5.00973
55.9384 5.18912
56.6807 5.34147
57.4230 5.57507
58.1653 5.95885
58.9076 6.65372
59.2788 7.23386
59.6499 8.11081
60.0211 9.52640
60.3922 12.0291
60.5778 14.0711
60.7634 17.0905
60.9489 21.8223
61.1345 29.8407
61.3201 45.0226
61.4129 58.2498
61.5057 79.0304
61.5984 114.182
61.6912 179.718
61.7376 235.121
61.7840 318.159
61.8304 446.381
61.8768 645.238
61.9384 1033.11
62.0000 1293.34
62.0616 1034.08
62.1232 646.512
62.1602 481.328
62.1972 364.572
62.2712 223.914
62.3451 149.500
62.4191 106.629
62.4931 80.0296
62.5671 62.5108
62.7150 41.7160
62.8630 30.3683
63.0109 23.5251
63.3069 16.0525
63.6028 12.2823
63.8987 10.1201
64.1946 8.76629
64.4905 7.86282
65.0823 6.76927
65.6742 6.15741
66.2660 5.78049
66.8578 5.53173
68.0415 5.23363
69.2251 5.06808
70.4088 4.96631
71.5924 4.89902
73.9597 4.81772
76.3270 4.77165
78.6943 4.74249
81.0616 4.72247
85.7962 4.69660
90.5308 4.68020
95.2654 4.66842
100.000 4.65923
112.500 4.64122
125.000 4.62770
137.500 4.61645
150.000 4.60664
175.000 4.58990
200.000 4.57585
237.500 4.55832
275.000 4.54388
350.000 4.52136
425.000 4.50453
500.000 4.49144
539.487 4.48569
559.231 4.48319
569.103 4.48259
571.571 4.48298
574.039 4.48465
575.273 4.48725
576.507 4.49488
577.124 4.50557
577.741 4.53572
578.049 4.57711
578.204 4.61799
578.358 4.69164
578.512 4.84557
578.589 4.99468
578.666 5.25785
578.705 5.47267
578.743 5.78928
578.782 6.28649
578.820 7.12654
578.859 8.72121
578.878 10.1119
578.898 12.2854
578.917 15.9815
578.936 22.8872
578.946 28.7737
578.955 37.5232
578.965 51.0320
578.975 71.9691
578.987 112.521
579.000 139.577
579.013 112.508
579.025 71.9530
579.037 48.0063
579.048 33.8855
579.059 25.3231
579.071 19.8917
579.093 13.7622
579.116 10.6462
579.139 8.85271
579.161 7.74049
579.207 6.48607
579.252 5.83586
579.297 5.45669
579.343 5.21666
579.388 5.05555
579.478 4.85867
579.569 4.74786
579.750 4.63424
579.931 4.58010
580.112 4.55018
580.475 4.51995
581.199 4.49794
581.924 4.49009
583.373 4.48433
584.822 4.48219
590.618 4.47959
602.210 4.47774
625.394 4.47497
671.763 4.47007
764.500 4.46171
857.237 4.45484
903.605 4.45192
926.789 4.45087
938.381 4.45152
941.280 4.45270
944.178 4.45631
945.627 4.46143
947.076 4.47596
947.800 4.49609
948.162 4.51613
948.525 4.55259
948.887 4.63009
949.068 4.70664
949.249 4.84481
949.340 4.96010
949.430 5.13440
949.521 5.41613
949.611 5.91494
949.657 6.32373
949.702 6.93061
949.747 7.88722
949.792 9.51796
949.838 12.6542
949.860 15.4362
949.883 19.8593
949.906 27.5567
949.928 42.3826
949.940 55.3916
949.951 75.6302
949.962 108.416
949.974 162.181
949.987 257.164
950.000 319.819
950.013 256.319
950.027 162.077
950.039 104.713
950.051 71.4487
950.063 51.5656
950.075 39.0872
950.100 25.1932
950.124 18.1590
950.149 14.1508
950.173 11.6632
950.222 8.87498
950.271 7.43454
950.319 6.59638
950.368 6.06663
950.417 5.71083
950.515 5.27770
950.612 5.03425
950.807 4.78488
951.003 4.66634
951.198 4.60090
951.588 4.53493
951.979 4.50403
952.369 4.48713
953.150 4.47024
954.712 4.45810
956.273 4.45380
959.397 4.45065
962.520 4.44945
975.013 4.44780
1000.00 4.44624
1062.50 4.44304
1125.00 4.44018
1250.00 4.43519
1500.00 4.42751
1625.00 4.42465
1750.00 4.42249
1875.00 4.42133
1937.50 4.42138
2000.00 4.42218
2047.41 4.42361
2094.83 4.42631
2142.24 4.43132
2189.65 4.44118
2213.36 4.44980
2237.06 4.46323
2260.77 4.48561
2284.48 4.52684
2296.33 4.56181
2308.18 4.61550
2320.04 4.70403
2331.89 4.86566
2337.82 5.00196
2343.74 5.21022
2349.67 5.55189
2355.59 6.17090
2358.56 6.68925
2361.52 7.47547
2364.48 8.75224
2367.45 11.0319
2368.93 12.9126
2370.41 15.7245
2371.89 20.1997
2373.37 27.9514
2374.86 43.1741
2375.60 56.9628
2376.34 79.5086
2377.08 120.093
2377.45 153.665
2377.82 203.489
2378.19 281.815
2378.56 412.098
2378.93 644.175
2379.30 1073.25
2379.65 1718.16
2380.00 2148.91
2380.35 1716.61
2380.70 1071.88
2380.95 757.852
2381.19 550.110
2381.44 411.453
2381.69 317.408
2382.18 203.446
2382.67 141.105
2383.16 103.632
2383.66 79.5471
2384.64 51.6578
2385.63 36.7708
2386.61 27.9389
2387.60 22.2754
2388.58 18.4306
2390.55 13.6968
2392.52 11.0084
2394.50 9.33603
2396.47 8.22673
2400.41 6.89227
2404.35 6.15123
2408.29 5.69771
2412.23 5.40020
2420.11 5.04657
2427.99 4.85252
2435.88 4.73471
2443.76 4.65787
2459.52 4.56706
2475.29 4.51748
2491.05 4.48746
2506.82 4.46788
2538.35 4.44470
2569.87 4.43194
2601.40 4.42410
2632.93 4.41887
2695.99 4.41243
2759.05 4.40858
2822.11 4.40598
2885.16 4.40406
3011.28 4.40133
3074.34 4.40042
3137.39 4.39993
3200.45 4.40043
3231.98 4.40164
3263.51 4.40454
3279.28 4.40732
3295.04 4.41190
3310.80 4.41993
3326.57 4.43541
3334.45 4.44894
3342.33 4.47016
3350.22 4.50588
3358.10 4.57245
3362.04 4.62942
3365.98 4.71743
3369.92 4.86342
3373.86 5.13117
3375.83 5.35748
3377.80 5.70323
3379.77 6.26982
3381.74 7.29151
3382.73 8.14270
3383.71 9.42429
3384.70 11.4844
3385.68 15.1043
3386.18 18.0431
3386.67 22.3642
3387.16 29.0841
3387.66 40.3162
3388.15 61.2459
3388.39 79.1022
3388.64 106.596
3388.89 152.010
3389.13 232.843
3389.38 392.228
3389.50 529.961
3389.63 731.209
3389.81 1170.19
3390.00 1461.66
3390.19 1169.14
3390.38 733.146
3390.57 442.669
3390.77 285.236
3390.97 195.909
3391.16 142.395
3391.36 107.968
3391.55 84.8963
3391.95 56.8029
3392.34 41.1377
3392.73 31.5536
3393.52 20.9486
3394.31 15.5317
3395.09 12.4003
3395.88 10.4290
3396.66 9.10823
3398.24 7.50313
3399.81 6.60154
3401.38 6.04478
3402.95 5.67679
3406.10 5.23547
3409.24 4.99057
3412.38 4.84045
3415.53 4.74170
3421.81 4.62363
3428.10 4.55821
3434.39 4.51806
3440.68 4.49158
3453.25 4.45975
3465.83 4.44195
3478.40 4.43089
3490.98 4.42350
3516.13 4.41443
3541.28 4.40917
3566.43 4.40577
3591.58 4.40340
3641.88 4.40027
3692.18 4.39824
3792.78 4.39561
3893.38 4.39382
3993.99 4.39240
4195.19 4.39017
4396.39 4.38847
4597.59 4.38746
4698.20 4.38747
4798.80 4.38819
4899.40 4.39039
5000.00 4.39612
5044.78 4.40121
5089.56 4.40958
5134.34 4.42423
5179.12 4.45242
5201.51 4.47703
5223.89 4.51554
5246.28 4.58023
5268.67 4.70038
5279.87 4.80283
5291.06 4.96049
5302.26 5.22067
5313.45 5.69411
5319.05 6.09108
5324.65 6.69299
5330.24 7.66817
5335.84 9.39969
5338.64 10.8179
5341.44 12.9218
5344.24 16.2317
5347.04 21.8667
5349.84 32.6149
5351.23 42.0418
5352.63 56.9567
5354.03 82.4539
5355.43 130.663
5356.13 172.053
5356.83 234.895
5357.53 333.824
5358.23 490.130
5359.12 782.535
5360.00 977.967
5360.89 782.149
5361.78 489.387
5362.60 313.669
5363.42 210.962
5364.24 149.672
5365.06 111.244
5366.70 68.4800
5368.34 46.8394
5369.98 34.4921
5371.62 26.8235
5374.90 18.2184
5378.18 13.7615
5381.46 11.1627
5384.74 9.51560
5388.02 8.40691
5394.58 7.05215
5401.13 6.28678
5407.69 5.81205
5414.25 5.49714
5427.37 5.11784
5440.49 4.90627
5453.61 4.77599
5466.72 4.68991
5492.96 4.58646
5519.20 4.52870
5545.43 4.49300
5571.67 4.46927
5624.14 4.44045
5676.61 4.42406
5729.08 4.41370
5781.55 4.40664
5886.50 4.39770
5991.44 4.39225
6096.38 4.38854
6201.33 4.38578
6411.21 4.38182
6621.10 4.37891
7040.87 4.37451
7460.64 4.37092
7880.42 4.36769
8300.19 4.36463
8510.07 4.36313
8615.02 4.36239
8667.49 4.36202
8693.72 4.36184
8706.84 4.36179
8713.40 4.36192
8716.68 4.36266
8718.32 4.36575
8719.14 4.37772
8719.55 4.42087
8719.76 4.55919
8719.86 4.91517
8719.91 5.57401
8719.96 8.10293
8720.00 11.8554
8720.04 8.11413
8720.08 5.92581
8720.12 5.16696
8720.19 4.67998
8720.35 4.46482
8720.65 4.39133
8721.26 4.36976
8722.48 4.36382
8724.92 4.36222
8729.79 4.36176
8739.54 4.36158
8759.05 4.36141
8798.05 4.36113
8876.06 4.36060
9032.08 4.35958
9188.10 4.35871
9344.12 4.35817
9500.14 4.35871
9578.15 4.36011
9656.16 4.36359
9695.17 4.36700
9734.17 4.37270
9773.18 4.38280
9812.18 4.40247
9831.68 4.41976
9851.19 4.44695
9870.69 4.49279
9890.19 4.57818
9899.94 4.65112
9909.69 4.76342
9919.44 4.94870
9929.20 5.28549
9934.07 5.56731
9938.95 5.99373
9943.82 6.68217
9948.70 7.89741
9951.14 8.88679
9953.57 10.3455
9956.01 12.6211
9958.45 16.4473
9960.89 23.6059
9962.11 29.7592
9963.33 39.2889
9964.54 55.0718
9965.76 83.5606
9966.37 106.877
9966.98 140.669
9967.59 190.766
9968.20 264.918
9969.10 422.292
9970.00 527.872
9970.90 423.657
9971.80 266.705
9972.68 167.525
9973.56 111.356
9974.44 78.6474
9975.33 58.5036
9976.21 45.3888
9977.09 36.4581
9978.85 25.4791
9980.61 19.2764
9982.38 15.4506
9985.90 11.1793
9989.43 8.97859
9992.95 7.69847
9996.48 6.88863
10000.0 6.34378
10004.8 5.85222
10009.5 5.52503
10019.0 5.12988
10028.5 4.90861
10038.0 4.77199
10057.0 4.61842
10075.9 4.53823
10094.9 4.49081
10113.9 4.46034
10151.9 4.42453
10189.9 4.40487
10227.8 4.39277
10303.8 4.37898
10379.7 4.37147
10455.6 4.36677
10607.5 4.36112
10759.4 4.35768
10911.3 4.35522
11215.0 4.35161
11518.7 4.34876
11822.5 4.34625
12430.0 4.34164
13645.0 4.33287
13948.7 4.33091
14100.6 4.33017
14252.5 4.32992
14404.4 4.33103
14480.3 4.33297
14556.2 4.33729
14594.2 4.34133
14632.2 4.34785
14670.1 4.35905
14708.1 4.38018
14727.1 4.39834
14746.1 4.42638
14765.1 4.47280
14784.0 4.55749
14793.5 4.62876
14803.0 4.73710
14812.5 4.91349
14822.0 5.22934
14826.8 5.49080
14831.5 5.88172
14836.2 6.50714
14841.0 7.59391
14845.7 9.74770
14848.1 11.7109
14850.5 14.9542
14852.9 20.8991
14854.0 25.8906
14855.2 33.3638
14856.4 45.4214
14857.6 65.9397
14858.8 104.410
14860.0 179.005
14861.0 283.775
14862.0 353.487
14863.0 283.364
14864.0 178.532
14864.9 117.985
14865.8 81.8341
14866.7 59.6298
14867.6 45.4089
14869.3 29.2585
14871.1 20.9289
14872.9 16.1271
14874.6 13.1236
14878.1 9.73254
14881.7 7.96874
14885.2 6.93791
14888.7 6.28427
14892.2 5.84404
14899.3 5.30550
14906.3 5.00127
14913.3 4.81152
14920.4 4.68410
14934.5 4.52416
14948.6 4.42202
14962.6 4.35025
14966.2 4.35916
14969.7 4.46213
14971.4 4.66276
14972.3 4.88636
14973.2 5.31709
14974.1 6.25919
14974.5 7.18587
14975.0 8.81200
14975.4 11.9976
14975.6 14.8395
14975.8 19.3806
14976.1 27.1941
14976.3 42.0236
14976.4 54.7256
14976.5 73.9586
14976.6 103.980
14976.7 151.093
14976.9 247.165
14977.0 309.305
14977.2 249.644
14977.3 162.611
14977.4 102.039
14977.6 70.0012
14977.7 50.9683
14977.9 39.0369
14978.0 30.6980
14978.2 25.3819
14978.4 18.7096
14978.7 14.7383
14979.0 12.3361
14979.6 9.57260
14980.1 8.07362
14980.7 7.17843
14981.3 6.59721
14981.8 6.20202
14983.0 5.69186
14984.1 5.39163
14986.4 5.05964
14988.6 4.88396
14990.9 4.77762
14995.4 4.65557
15000.0 4.58781
15004.5 4.54447
15013.5 4.49155
15022.6 4.45978
15031.7 4.43824
15049.8 4.41034
15067.9 4.39275
15086.0 4.38054
15122.3 4.36466
15158.5 4.35477
15194.8 4.34804
15267.3 4.33947
15339.8 4.33420
15412.3 4.33055
15557.3 4.32558
15702.2 4.32201
15847.2 4.31913
15919.7 4.31816
15992.2 4.31893
16028.5 4.32227
16064.7 4.33539
16082.9 4.35654
16091.9 4.37898
16101.0 4.42161
16105.5 4.45849
16110.0 4.51577
16114.6 4.61110
16119.1 4.78593
16121.4 4.93355
16123.6 5.15700
16125.9 5.52131
16128.2 6.16555
16129.3 6.69763
16130.4 7.47922
16131.6 8.70377
16132.7 10.7753
16133.8 14.7283
16134.4 18.1719
16135.0 23.4565
16135.5 32.4800
16136.1 48.7617
16136.4 62.8325
16136.7 82.9517
16136.9 113.299
16137.2 159.095
16137.6 253.967
16138.0 315.696
16138.4 252.834
16138.8 160.845
16139.1 112.354
16139.4 81.0699
16139.7 60.8111
16140.0 47.6691
16140.6 31.6841
16141.2 23.0414
16141.8 17.8317
16142.4 14.5656
16143.5 10.7896
16144.7 8.76503
16145.9 7.57386
16147.1 6.80818
16148.3 6.28688
16150.6 5.64025
16153.0 5.27208
16155.4 5.04054
16157.7 4.88641
16162.5 4.69829
16167.2 4.59246
16171.9 4.52665
16176.7 4.48279
16186.1 4.42942
16195.6 4.39922
16214.5 4.36754
16233.4 4.35177
16252.4 4.34257
16290.2 4.33247
16365.9 4.32354
16441.6 4.31906
16593.1 4.31369
16630.9 4.31339
16668.8 4.31619
16687.7 4.32263
16706.6 4.34534
16716.1 4.38053
16720.8 4.41730
16725.5 4.48635
16730.3 4.63705
16732.6 4.78851
16735.0 5.06242
16736.2 5.29319
16737.4 5.63861
16738.6 6.19289
16739.7 7.16198
16740.9 9.10494
16741.5 10.8692
16742.1 13.7788
16742.7 19.0561
16743.0 23.5377
16743.3 30.0275
16743.6 40.6558
16743.9 57.9799
16744.2 90.4790
16744.5 149.695
16744.7 237.698
16745.0 296.996
16745.3 239.193
16745.5 151.571
16745.8 103.371
16746.0 73.2615
16746.2 54.2938
16746.4 42.3707
16746.8 28.0262
16747.3 20.4093
16747.7 15.8490
16748.1 13.0335
16749.0 9.80054
16749.9 8.07367
16750.7 7.06518
16751.6 6.41215
16752.5 5.97410
16754.2 5.43029
16755.9 5.11981
16757.7 4.92554
16759.4 4.79566
16762.8 4.63768
16766.3 4.54844
16773.2 4.45581
16780.1 4.41048
16787.1 4.38467
16800.9 4.35743
16828.6 4.33563
16856.2 4.32660
16911.6 4.31832
16966.9 4.31396
17022.2 4.31107
17077.6 4.31051
17105.2 4.31408
17132.9 4.33136
17146.7 4.36127
17153.6 4.39390
17160.6 4.45676
17164.0 4.51171
17167.5 4.59752
17170.9 4.74089
17174.4 5.00317
17176.1 5.22423
17177.8 5.55936
17179.6 6.10037
17181.3 7.05230
17183.0 8.95115
17183.9 10.7055
17184.8 13.5754
17185.6 18.8662
17186.1 23.2373
17186.5 29.7901
17186.9 40.1548
17187.4 57.6398
17187.8 89.2821
17188.2 148.952
17188.6 238.162
17189.0 296.654
17189.4 238.186
17189.8 151.955
17190.1 100.539
17190.5 70.3695
17190.8 51.3177
17191.2 39.4829
17191.9 25.8053
17192.5 18.8194
17193.2 14.7087
17193.9 12.1623
17195.3 9.24098
17196.7 7.69840
17198.0 6.79655
17199.4 6.21929
17200.8 5.82706
17203.5 5.34096
17206.3 5.06346
17209.0 4.88838
17211.8 4.77121
17217.2 4.62735
17222.7 4.54524
17228.2 4.49356
17233.7 4.45875
17244.7 4.41562
17255.7 4.39061
17277.6 4.36360
17299.6 4.34961
17321.5 4.34118
17365.4 4.33156
17453.3 4.32265
17541.1 4.31816
17716.7 4.31302
17892.4 4.30963
18243.6 4.30442
18594.9 4.29986
19297.5 4.29076
19648.7 4.28582
20000.0 4.28051
20227.6 4.27703
20455.2 4.27463
20569.0 4.27573
20626.0 4.27840
20682.9 4.28488
20711.3 4.29118
20739.8 4.30159
20768.2 4.31985
20796.7 4.35498
20810.9 4.38555
20825.1 4.43315
20839.3 4.51257
20853.6 4.65828
20860.7 4.78121
20867.8 4.96787
20874.9 5.27065
20882.0 5.80796
20885.6 6.24779
20889.1 6.89867
20892.7 7.91844
20896.2 9.63698
20899.8 12.8806
20901.6 15.6874
20903.4 20.0317
20905.1 27.3187
20906.9 40.6300
20907.8 51.6415
20908.7 67.8004
20909.6 92.0782
20910.5 128.045
20911.7 202.953
20913.0 253.374
20914.3 204.069
20915.5 129.465
20916.4 94.7987
20917.2 71.3295
20918.9 44.0457
20920.5 30.0698
20922.2 22.2653
20923.9 17.4735
20925.5 14.3723
20928.9 10.7166
20932.2 8.74007
20935.5 7.55397
20942.2 6.26407
20948.8 5.61239
20955.5 5.23797
20962.2 5.00281
20968.8 4.84544
20982.1 4.65339
20995.4 4.54489
21008.8 4.47724
21022.1 4.43211
21048.7 4.37702
21075.3 4.34561
21102.0 4.32574
21128.6 4.31220
21181.8 4.29501
21235.1 4.28449
21341.6 4.27170
21448.1 4.26337
21554.6 4.25668
21767.6 4.24452
21980.7 4.23128
22087.2 4.22353
22193.7 4.21461
22300.2 4.20420
22406.7 4.19258
22460.0 4.18772
22513.2 4.18955
22539.8 4.20193
22553.2 4.21795
22566.5 4.25098
22579.8 4.32808
22586.4 4.40822
22593.1 4.55683
22596.4 4.68299
22599.8 4.87547
22603.1 5.18855
22606.4 5.74263
22609.7 6.86613
22611.4 7.91614
22613.1 9.67142
22614.7 12.9676
22615.6 15.7746
22616.4 20.0959
22617.2 27.1873
22618.1 39.8040
22618.9 64.5132
22619.3 86.0193
22619.7 116.499
22620.4 185.297
22621.0 230.891
22621.7 185.765
22622.3 118.500
22622.7 88.5739
22623.1 67.5857
22623.9 42.5644
22624.7 29.4701
22625.5 21.9761
22626.3 17.3446
22627.1 14.3008
22628.7 10.7076
22630.3 8.73051
22631.9 7.53645
22635.1 6.23067
22638.3 5.56464
22641.5 5.18062
22644.7 4.93781
22647.8 4.77412
22654.2 4.57276
22660.6 4.45773
22667.0 4.38501
22673.4 4.33580
22686.2 4.27419
22698.9 4.23746
22724.5 4.19496
22750.0 4.16934
22775.6 4.15031
22826.6 4.11892
22928.8 4.05822
22954.3 4.04644
22979.9 4.05091
22992.7 4.07714
22999.0 4.10879
23005.4 4.17007
23011.8 4.30290
23015.0 4.43238
23018.2 4.66017
23019.8 4.84548
23021.4 5.11820
23023.0 5.54327
23024.6 6.25375
23026.2 7.59750
23027.0 8.76444
23027.8 10.5666
23028.6 13.6419
23029.4 19.3802
23029.8 24.2416
23030.2 31.5494
23030.6 42.8719
23031.0 59.9324
23031.5 92.9250
23032.0 114.387
23032.5 91.6388
23033.0 58.3274
23033.4 40.9994
23033.8 29.9504
23034.2 22.8671
23034.6 18.2786
23035.4 12.7427
23036.2 9.83806
23037.0 8.11133
23037.8 7.03352
23039.4 5.80253
23041.0 5.15375
23042.6 4.77619
23044.2 4.53509
23045.7 4.37370
23048.9 4.17539
23052.1 4.06236
23058.4 3.94162
23064.8 3.87715
23071.1 3.83424
23083.8 3.77088
23109.2 3.65401
23134.5 3.50024
23159.9 3.25841
23172.6 3.07385
23185.3 2.81083
23191.6 2.63228
23197.9 2.40658
23204.3 2.11287
23210.6 1.71854
23217.0 1.17477
23220.1 0.831947
23223.3 0.452450
23226.5 0.120479
23228.1 0.0713578
23229.6 0.267043
23230.4 0.558800
23231.2 1.07980
23232.0 1.98122
23232.8 3.52471
23233.6 6.23259
23234.4 10.9550
23235.2 19.4630
23236.0 34.8925
23237.0 70.2455
23238.0 107.965
23238.5 111.903
23239.0 104.156
23240.0 77.3746
23241.0 55.8824
23242.1 42.1323
23243.1 33.3581
23244.1 27.5649
23245.1 23.4785
23246.1 20.5107
23248.1 16.5661
23250.1 14.0801
23252.1 12.4040
23256.1 10.2996
23260.2 9.04358
23264.2 8.21756
23272.3 7.20967
23280.3 6.63326
23284.3 6.44131
23288.4 6.30554
23292.4 6.24322
23294.4 6.26144
23296.4 6.34890
23298.4 6.59490
23299.4 6.85374
23300.4 7.31210
23301.5 8.23032
23302.0 9.05030
23302.5 10.3746
23303.0 12.7627
23303.5 17.4193
23303.7 21.6060
23304.0 28.2840
23304.2 39.4703
23304.5 58.5786
23304.7 90.0607
23305.0 110.838
23305.3 89.5450
23305.5 57.9271
23305.7 43.2140
23305.9 33.6727
23306.2 22.1827
23306.6 16.3258
23306.9 13.1068
23307.3 11.0728
23307.6 9.78225
23308.3 8.23399
23309.0 7.39292
23309.7 6.88514
23311.1 6.32511
23312.5 6.03271
23313.8 5.85864
23316.6 5.65903
23322.1 5.46442
23327.7 5.35416
23338.7 5.20955
23349.8 5.10758
23360.8 5.02814
23371.9 4.96357
23394.0 4.86404
23416.1 4.79052
23438.2 4.73385
23482.4 4.65215
23526.6 4.59606
23570.8 4.55522
23659.2 4.49994
23836.0 4.44077
24012.8 4.41365
24101.2 4.40808
24189.6 4.40840
24278.0 4.41731
24366.4 4.44211
24410.6 4.46600
24454.8 4.50445
24499.0 4.56944
24543.2 4.68865
24565.3 4.78827
24587.4 4.93820
24609.5 5.17792
24631.6 5.59456
24653.7 6.41221
24664.8 7.15099
24675.8 8.35621
24686.9 10.5082
24692.4 12.2732
24697.9 14.8732
24703.4 18.9088
24709.0 25.5148
24714.5 37.0272
24720.0 57.6024
24725.5 89.5984
24731.0 110.956
24736.5 89.7919
24742.0 57.8853
24746.2 41.0880
24750.5 30.3405
24754.7 23.4001
24758.9 18.8007
24767.4 13.3743
24775.9 10.4743
24784.4 8.76289
24792.8 7.67448
24809.8 6.42553
24826.7 5.76435
24843.6 5.37320
24860.6 5.12279
24877.5 4.95288
24911.4 4.74316
24945.3 4.62331
24979.1 4.54814
25013.0 4.49769
25080.7 4.43584
25148.5 4.40035
25216.2 4.37783
25284.0 4.36254
25419.5 4.34435
25487.2 4.33997
25555.0 4.33975
25622.7 4.34834
25656.6 4.36066
25690.5 4.38648
25707.4 4.40978
25724.4 4.44677
25741.3 4.50931
25758.2 4.62531
25766.7 4.72369
25775.2 4.87384
25783.6 5.11829
25792.1 5.55288
25796.3 5.90962
25800.6 6.43675
25804.8 7.26519
25809.0 8.66356
25813.3 11.3044
25815.4 13.5905
25817.5 17.1334
25819.6 23.0718
25821.7 33.8445
25822.8 42.7764
25823.9 55.8686
25824.9 75.5103
25826.0 104.628
25827.5 165.471
25829.0 206.542
25830.5 166.664
25832.0 106.139
25833.2 74.3031
25834.4 53.8787
25835.6 40.7153
25836.7 31.9664
25839.1 21.6492
25841.4 16.1276
25843.7 12.8642
25846.1 10.7857
25850.8 8.39826
25855.4 7.12836
25860.1 6.37528
25864.8 5.89209
25869.5 5.56401
25878.8 5.15741
25888.2 4.92470
25897.5 4.77845
25906.9 4.68047
25925.6 4.56066
25944.3 4.49250
25963.0 4.44968
25981.7 4.42082
26019.1 4.38506
26056.6 4.36416
26094.0 4.35057
26131.4 4.34103
26206.2 4.32844
26281.1 4.32031
26430.8 4.30993
26580.4 4.30306
26730.1 4.29782
27029.5 4.28970
27328.8 4.28318
27628.2 4.27749
28226.9 4.26741
28825.6 4.25831
29424.3 4.25034
29723.7 4.24786
29873.3 4.24795
30023.0 4.25040
30097.9 4.25351
30172.7 4.25917
30247.5 4.26968
30322.4 4.29059
30359.8 4.30908
30397.2 4.33808
30434.6 4.38671
30472.0 4.47636
30490.8 4.55208
30509.5 4.66739
30528.2 4.85484
30546.9 5.18846
30556.2 5.46203
30565.6 5.86728
30575.0 6.50474
30584.3 7.58632
30593.7 9.63995
30598.3 11.4308
30603.0 14.2376
30607.7 18.9894
30612.4 27.8034
30614.7 35.2417
30617.0 46.3535
30619.4 63.4281
30621.7 89.6040
30624.9 141.326
30628.0 175.948
30631.2 141.805
30634.3 90.4517
30637.7 55.4073
30641.1 36.6681
30644.5 26.2400
30647.9 20.0204
30651.3 16.0661
30654.8 13.4144
30661.6 10.2087
30668.4 8.42707
30675.2 7.33873
30688.9 6.13494
30702.5 5.51936
30716.1 5.16270
30729.8 4.93749
30743.4 4.78617
30770.7 4.60112
30798.0 4.49629
30825.2 4.43091
30852.5 4.38725
30907.1 4.33396
30961.6 4.30355
31016.2 4.28428
31070.7 4.27110
31179.8 4.25423
31288.9 4.24373
31398.0 4.23631
31507.1 4.23057
31725.3 4.22177
31943.6 4.21583
32052.7 4.21574
32107.2 4.21817
32161.8 4.22504
32216.3 4.24369
32243.6 4.26431
32270.9 4.30378
32284.5 4.33784
32298.1 4.39040
32311.8 4.47693
32325.4 4.63290
32332.2 4.76234
32339.1 4.95650
32345.9 5.26642
32352.7 5.80537
32359.5 6.86762
32362.9 7.83402
32366.3 9.42475
32369.7 12.3080
32371.5 14.7178
32373.2 18.3139
32374.9 24.0541
32376.6 33.7360
32378.3 51.3964
32380.0 85.0807
32381.5 133.461
32383.0 165.535
32384.5 133.015
32386.0 84.5347
32387.8 50.6263
32389.5 33.0242
32391.2 23.4470
32392.9 17.8520
32394.6 14.3123
32396.4 11.9613
32399.8 9.15426
32403.2 7.60577
32406.7 6.66994
32413.5 5.64085
32420.4 5.11764
32427.3 4.81417
32434.1 4.62073
32441.0 4.48808
32454.7 4.31852
32468.5 4.22715
32475.4 4.23271
32478.8 4.27647
32482.2 4.39306
32485.7 4.70209
32487.4 5.03650
32489.1 5.65372
32490.8 6.93655
32491.7 8.12677
32492.5 10.0876
32493.4 13.5825
32494.3 20.5159
32494.7 26.6962
32495.1 36.3985
32495.5 52.2255
32496.0 77.5774
32496.5 125.690
32497.0 161.221
32497.5 133.977
32498.0 87.9379
32498.5 62.5108
32498.9 46.0898
32499.3 35.4500
32499.7 28.3361
32500.5 19.8638
32501.3 15.2571
32502.1 12.4877
32503.0 10.6925
32504.6 8.58403
32506.2 7.41620
32507.9 6.70293
32509.5 6.22626
32511.1 5.89312
32514.4 5.46054
32517.7 5.19715
32520.9 5.02207
32524.2 4.89816
32530.8 4.73549
32537.3 4.63403
32550.4 4.51474
32563.5 4.44680
32576.5 4.40288
32602.7 4.34920
32628.9 4.31751
32655.0 4.29656
32707.4 4.27047
32759.7 4.25478
32812.0 4.24420
32916.7 4.23053
33021.3 4.22172
33126.0 4.21525
33335.3 4.20562
33544.6 4.19805
33753.9 4.19139
34172.5 4.17916
34591.1 4.16756
34800.4 4.16224
35009.7 4.15809
35219.0 4.15759
35323.7 4.16113
35428.4 4.17117
35533.0 4.19733
35585.3 4.22467
35637.7 4.27368
35690.0 4.37061
35716.2 4.45734
35742.3 4.59666
35768.5 4.84108
35781.6 5.03981
35794.6 5.33578
35807.7 5.81432
35814.3 6.18225
35820.8 6.71282
35827.3 7.55665
35830.6 8.20928
35833.9 9.16914
35837.2 10.7504
35838.8 12.0186
35840.4 13.9147
35842.1 17.0981
35842.9 19.6272
35843.7 23.2864
35844.5 29.1125
35845.3 39.2097
35845.7 47.2999
35846.2 58.9539
35846.6 76.1662
35847.0 100.628
35847.5 141.412
35848.0 155.407
35848.5 109.800
35849.0 61.1922
35849.4 39.6784
35849.8 26.7167
35850.2 18.8572
35850.6 14.0671
35850.9 10.8973
35851.3 8.81643
35852.1 6.49777
35852.8 5.39950
35853.6 4.90609
35855.1 4.68936
35856.6 4.88620
35858.1 5.22959
35861.1 6.07546
35864.1 7.02870
35867.1 8.10145
35873.1 10.8638
35879.2 15.2031
35885.2 22.9498
35888.2 29.3179
35891.2 38.6427
35894.2 52.6349
35897.2 73.6602
35901.6 118.764
35906.0 151.044
35910.4 124.215
35914.8 80.7087
35917.6 60.5950
35920.4 46.5429
35926.1 29.9021
35931.7 21.2180
35937.3 16.2438
35943.0 13.1606
35948.6 11.1261
35959.8 8.69785
35971.1 7.35935
35982.4 6.54290
36004.9 5.63663
36027.4 5.16857
36049.9 4.89427
36072.5 4.71885
36095.0 4.59935
36140.0 4.45045
36185.1 4.36369
36230.1 4.30796
36275.2 4.26953
36365.2 4.22023
36455.3 4.18971
36545.4 4.16842
36635.5 4.15215
36815.7 4.12702
36995.9 4.10545
37176.0 4.08295
37221.1 4.07832
37266.1 4.08146
37288.7 4.09756
37299.9 4.11868
37311.2 4.16310
37322.4 4.26873
37328.1 4.37955
37333.7 4.58582
37336.5 4.76050
37339.3 5.02422
37342.1 5.44930
37345.0 6.18519
37347.8 7.62123
37349.2 8.89936
37350.6 10.9240
37352.0 14.4356
37353.4 21.1441
37354.1 26.9889
37354.8 35.7928
37355.5 49.6553
37356.2 71.6324
37357.1 113.790
37358.0 142.614
37358.9 116.023
37359.8 75.0486
37360.8 45.4107
37361.8 30.1194
37362.9 21.7402
37363.9 16.7867
37364.9 13.6518
37365.9 11.5536
37368.0 9.01615
37370.0 7.59554
37372.1 6.72786
37376.1 5.75804
37380.2 5.25294
37384.3 4.95611
37388.4 4.76539
37392.5 4.63491
37400.6 4.47141
37408.8 4.37566
37425.1 4.27162
37441.5 4.21759
37457.8 4.18500
37490.5 4.14765
37523.1 4.12644
37555.8 4.11224
37621.1 4.09294
37751.8 4.06486
37817.1 4.04835
37849.8 4.04198
37858.0 4.04874
37866.1 4.08430
37870.2 4.14702
37874.3 4.34521
37876.3 4.62937
37877.4 4.91048
37878.4 5.40888
37879.4 6.40456
37879.9 7.31335
37880.4 8.80309
37880.9 11.4670
37881.4 16.8447
37881.7 21.8849
37882.0 29.7282
37882.2 43.6635
37882.5 67.0356
37882.7 106.191
37883.0 133.434
37883.3 108.924
37883.5 70.4524
37883.8 45.4418
37884.1 31.2995
37884.4 23.0812
37884.6 18.0210
37884.9 14.7253
37885.2 12.4729
37885.7 9.72962
37886.2 8.13210
37886.8 7.13917
37887.8 6.02569
37888.9 5.43503
37890.0 5.08815
37892.1 4.70911
37896.4 4.40291
37900.7 4.28043
37909.3 4.17998
37917.9 4.13815
37935.1 4.10142
37952.3 4.08430
37986.7 4.06634
38021.1 4.05524
38089.9 4.03665
38124.3 4.02439
38141.5 4.02088
38150.1 4.06463
38152.3 4.12652
38154.4 4.32029
38155.5 4.59873
38156.6 5.35341
38157.1 6.32535
38157.6 8.60885
38157.9 11.1758
38158.2 16.3615
38158.3 21.3264
38158.5 28.7780
38158.6 41.2007
38158.7 62.2854
38158.9 99.8087
38159.0 123.616
38159.2 99.6319
38159.3 65.3646
38159.4 48.0866
38159.5 36.4051
38159.6 28.5233
38159.7 23.0877
38159.9 16.4207
38160.1 12.8494
38160.5 9.10042
38160.9 7.34270
38161.7 5.78410
38162.4 5.14310
38164.0 4.61454
38165.6 4.40447
38168.7 4.23397
38171.8 4.16518
38184.3 4.08338
38209.4 4.05037
38259.5 4.03089
38359.6 4.00916
38459.8 3.98762
38509.9 3.98684
38522.4 4.00371
38534.9 4.07173
38541.2 4.18097
38544.3 4.29536
38547.4 4.50786
38550.6 4.95815
38552.1 5.39415
38553.7 6.14419
38555.3 7.60438
38556.1 8.88765
38556.8 10.9217
38557.6 14.4494
38558.4 21.0210
38558.8 26.6070
38559.2 35.0105
38559.6 48.0279
38560.0 68.2777
38560.5 108.216
38561.0 135.977
38561.5 110.939
38562.0 71.6833
38562.5 48.0457
38563.0 33.9327
38563.5 25.3685
38563.9 20.0206
38564.9 13.8266
38565.8 10.6665
38566.7 8.81639
38567.7 7.66436
38569.5 6.34549
38571.4 5.64256
38573.2 5.22600
38577.0 4.77032
38580.7 4.53764
38584.4 4.40136
38591.9 4.25379
38599.4 4.17797
38606.8 4.13283
38621.7 4.08230
38651.6 4.03722
38681.4 4.01529
38741.1 3.99038
38800.8 3.97323
38920.2 3.94373
39039.5 3.91238
39158.9 3.87255
39218.6 3.84598
39278.2 3.81064
39337.9 3.75821
39367.8 3.71952
39397.6 3.66465
39427.5 3.57838
39442.4 3.51242
39457.3 3.41702
39472.2 3.26494
39479.7 3.14817
39487.1 2.97982
39494.6 2.71522
39498.3 2.51678
39502.1 2.23980
39505.8 1.82987
39509.5 1.18360
39513.2 0.280565
39514.2 0.239017
39515.1 0.820096
39515.6 1.78342
39516.0 3.78576
39516.5 8.13033
39516.7 11.8191
39517.0 17.2780
39517.2 25.7757
39517.5 37.4398
39518.0 60.7295
39518.3 64.4904
39518.5 61.5059
39519.0 47.4557
39519.6 34.5903
39520.1 26.4735
39520.7 21.2551
39521.2 17.8675
39521.8 15.4703
39522.4 13.7623
39523.5 11.4755
39524.6 10.0264
39525.7 9.04666
39527.9 7.83264
39530.1 7.12782
39532.3 6.69699
39536.7 6.30317
39541.2 6.41788
39543.4 6.75066
39545.6 7.44035
39547.8 8.89041
39548.9 10.2057
39550.0 12.2844
39551.1 15.8587
39552.3 22.5338
39552.8 28.2121
39553.4 36.5099
39553.9 49.1294
39554.5 68.3464
39555.2 107.755
39556.0 135.102
39556.8 110.308
39557.5 71.5150
39558.3 47.0501
39559.0 32.9103
39559.8 24.5482
39560.5 19.3887
39561.2 15.9396
39562.0 13.5652
39563.4 10.6234
39564.9 8.91795
39566.4 7.85239
39569.3 6.62711
39572.3 5.96535
39575.2 5.56235
39578.2 5.29464
39581.1 5.10564
39587.0 4.85572
39592.9 4.69857
39604.7 4.50973
39616.5 4.39850
39628.3 4.32398
39651.9 4.22880
39675.4 4.16960
39699.0 4.12893
39746.2 4.07714
39793.3 4.04746
39840.5 4.03193
39934.8 4.03850
40029.1 4.12317
40076.2 4.22932
40123.4 4.43316
40170.6 4.86022
40194.1 5.25916
40217.7 5.92270
40241.3 7.13136
40253.1 8.13704
40264.9 9.63932
40276.6 12.0072
40288.4 15.9767
40300.2 23.0946
40312.0 36.3342
40323.0 55.9906
40334.0 69.0919
40345.0 56.0030
40356.0 36.3673
40363.2 27.3146
40370.4 21.1168
40384.9 13.9249
40399.3 10.2628
40413.7 8.20213
40428.1 6.94052
40442.5 6.11599
40471.4 5.13733
40500.2 4.59515
40529.1 4.25726
40586.8 3.85603
40644.4 3.61025
40702.1 3.42268
40817.5 3.08151
40932.9 2.66269
40990.6 2.37681
41048.3 1.99849
41105.9 1.47264
41134.8 1.13086
41163.6 0.729183
41192.5 0.299672
41206.9 0.124524
41214.1 0.0724861
41221.3 0.0660534
41228.5 0.134159
41235.7 0.323970
41239.4 0.487569
41243.0 0.714106
41246.6 1.02357
41250.2 1.43889
41257.4 2.73355
41264.6 5.01786
41271.8 9.03961
41279.0 16.0491
41284.5 24.4131
41290.0 35.7772
41301.0 59.4728
41306.5 63.6865
41312.0 61.1306
41323.0 47.7697
41335.7 34.4802
41348.4 26.2057
41361.1 21.0648
41373.8 17.7033
41386.5 15.3793
41399.2 13.6993
41424.6 11.4577
41450.1 10.0478
41475.5 9.08693
41526.3 7.87005
41577.1 7.13573
41627.9 6.64609
41729.6 6.03528
41831.2 5.66979
41932.8 5.42646
42136.1 5.12204
42339.4 4.93842
42542.7 4.81479
42949.2 4.65654
43355.8 4.55584
43762.4 4.48025
43965.6 4.44569
44168.9 4.40952
44372.2 4.36760
44423.0 4.35702
44473.8 4.35193
44499.2 4.35925
44524.7 4.39763
44537.4 4.46034
44543.7 4.52535
44550.1 4.64503
44556.4 4.89720
44559.6 5.14128
44562.8 5.56613
44565.9 6.40739
44567.5 7.17203
44569.1 8.41612
44570.7 10.6634
44571.5 12.5306
44572.3 15.2680
44573.1 19.5987
44573.9 26.6860
44574.7 39.1488
44575.5 61.7867
44576.2 96.5516
44577.0 119.947
44577.8 97.0742
44578.5 62.4426
44579.2 43.0993
44579.8 31.1332
44580.5 23.6568
44581.1 18.8674
44582.4 13.2530
44583.6 10.3378
44584.9 8.62569
44586.2 7.55461
44588.7 6.33170
44591.3 5.68546
44593.8 5.30430
44598.9 4.89540
44604.0 4.69019
44609.1 4.57214
44619.3 4.44588
44629.5 4.38074
44639.7 4.34064
44660.0 4.29052
44741.5 4.15582
44782.3 4.05739
44802.6 3.98328
44823.0 3.87608
44843.4 3.70453
44853.6 3.57227
44863.7 3.38139
44873.9 3.08076
44879.0 2.85544
44884.1 2.54095
44889.2 2.07388
44891.8 1.74819
44894.3 1.33343
44899.4 0.229707
44900.7 0.0832824
44901.9 0.474347
44902.6 1.25029
44903.2 2.92234
44903.9 6.52572
44904.2 9.62178
44904.5 13.8979
44904.9 21.4175
44905.2 31.7348
44906.0 53.7260
44906.4 58.0248
44906.8 55.9891
44907.5 44.2548
44908.1 36.2156
44908.6 30.0761
44909.2 25.5453
44909.7 22.2331
44910.8 17.6933
44911.9 14.8923
44913.0 12.9995
44914.1 11.6705
44916.3 9.92783
44918.5 8.84315
44920.7 8.11419
44925.0 7.19765
44929.4 6.65287
44933.8 6.29824
44942.5 5.89012
44946.9 5.78354
44951.2 5.73396
44955.6 5.75501
44960.0 5.89168
44964.4 6.27714
44966.5 6.67966
44968.7 7.38893
44970.9 8.77466
44972.0 9.98925
44973.1 11.9001
44974.2 15.1578
44975.3 21.1238
44975.8 26.1496
44976.4 33.4318
44976.9 44.6549
44977.5 61.3296
44978.2 95.9247
44979.0 119.695
44979.8 97.6101
44980.5 63.4286
44981.3 41.7283
44982.0 29.4337
44982.8 22.0984
44983.5 17.6038
44984.3 14.6174
44985.0 12.5949
44986.5 10.0785
44988.0 8.62767
44989.5 7.72625
44992.4 6.69574
44995.4 6.14674
44998.4 5.81751
45004.3 5.44915
45010.3 5.25082
45016.2 5.12721
45028.1 4.97881
45040.0 4.89017
45051.9 4.82932
45075.7 4.74830
45099.4 4.69487
45123.2 4.65604
45170.8 4.60213
45218.3 4.56564
45265.9 4.53882
45361.0 4.50114
45456.1 4.47511
45551.3 4.45546
45741.5 4.42658
45931.7 4.40554
46122.0 4.39027
46217.1 4.38594
46312.2 4.38735
46359.8 4.39344
46407.3 4.40959
46431.1 4.42763
46454.9 4.46779
46466.8 4.51448
46478.7 4.63039
46484.6 4.77652
46487.6 4.91320
46490.6 5.14735
46493.6 5.60332
46495.0 6.01269
46496.5 6.67169
46498.0 7.84706
46499.5 10.1867
46500.2 12.3527
46501.0 15.8186
46501.7 21.7335
46502.5 32.0764
46503.2 48.7286
46504.0 59.8998
46504.8 48.8961
46505.5 32.2891
46506.2 23.0228
46506.8 17.2945
46507.5 13.7178
46508.1 11.3986
46509.4 8.73219
46510.7 7.34890
46511.9 6.53769
46513.2 6.02821
46515.8 5.45312
46518.3 5.15300
46520.9 4.97968
46526.0 4.80045
46536.2 4.68045
46546.4 4.66144
46556.6 4.68224
46566.8 4.73017
46587.3 4.91793
46597.5 5.08364
46607.7 5.33561
46617.9 5.73925
46628.1 6.43383
46638.3 7.76695
46643.4 8.93632
46648.5 10.7746
46653.7 13.8901
46658.8 19.6628
46661.3 24.5298
46663.9 31.7419
46666.4 42.7508
46669.0 59.5907
46672.5 93.6546
46676.0 117.119
46679.5 95.4546
46683.0 61.8536
46686.3 41.4056
46689.5 29.3375
46692.8 22.0824
46696.0 17.5056
46702.5 12.3742
46709.0 9.75131
46715.4 8.24259
46721.9 7.29752
46734.9 6.22489
46747.8 5.65982
46760.8 5.32492
46773.8 5.10933
46786.7 4.96192
46812.6 4.77752
46838.5 4.66993
46864.4 4.60094
46890.4 4.55359
46942.2 4.49363
46994.0 4.45762
47045.8 4.43365
47097.7 4.41648
47201.3 4.39314
47305.0 4.37756
47408.6 4.36599
47512.3 4.35675
47719.6 4.34227
47926.9 4.33077
48341.5 4.31219
48756.1 4.29662
49170.8 4.28256
50000.0 4.25640
50213.0 4.25034
50426.0 4.24657
50532.5 4.24822
50639.0 4.25946
50692.2 4.27665
50718.9 4.29314
50745.5 4.32125
50772.1 4.37529
50785.4 4.42399
50798.7 4.50518
50812.0 4.66034
50818.7 4.80102
50825.3 5.03664
50828.7 5.22197
50832.0 5.48882
50835.3 5.89619
50838.7 6.56673
50842.0 7.81015
50843.7 8.88300
50845.3 10.5478
50847.0 13.3751
50848.6 18.6422
50849.5 23.1356
50850.3 29.9538
50851.1 40.6665
50852.0 57.6085
50853.0 87.8621
50854.0 106.538
50855.0 84.2769
50856.0 53.1312
50856.7 38.8967
50857.4 29.3210
50858.8 18.4694
50860.1 13.1033
50861.5 10.1626
50862.8 8.40882
50864.2 7.29149
50866.9 6.02110
50869.6 5.35964
50872.4 4.97965
50877.8 4.59237
50883.2 4.41604
50888.7 4.32696
50899.5 4.25482
50910.4 4.24095
50921.3 4.25390
50943.0 4.33978
50953.9 4.42323
50964.7 4.55547
50975.6 4.77574
50986.5 5.17248
50997.4 5.97531
51002.8 6.71388
51008.2 7.92565
51013.7 10.0965
51019.1 14.4484
51021.8 18.4021
51024.5 24.7380
51027.3 35.3812
51030.0 53.5173
51033.0 84.9070
51036.0 107.319
51039.0 88.4653
51042.0 57.9750
51045.5 35.7159
51049.0 24.1155
51052.5 17.7728
51056.0 14.0327
51059.5 11.6550
51063.0 10.0644
51070.0 8.12945
51077.0 7.04310
51084.0 6.37096
51098.0 5.61257
51112.0 5.21286
51125.9 4.97454
51139.9 4.81968
51153.9 4.71264
51181.9 4.57682
51209.8 4.49601
51237.8 4.44328
51265.8 4.40658
51321.7 4.35932
51377.6 4.33048
51433.6 4.31111
51489.5 4.29718
51601.3 4.27832
51713.2 4.26588
51936.9 4.24972
52160.6 4.23892
52384.3 4.23069
52831.8 4.21853
53279.2 4.21143
53502.9 4.21100
53726.6 4.21512
53950.4 4.22992
54062.2 4.24678
54174.1 4.27857
54230.0 4.30539
54285.9 4.34589
54341.9 4.41083
54397.8 4.52428
54453.7 4.74977
54481.7 4.95737
54509.7 5.30430
54537.6 5.95053
54551.6 6.50528
54565.6 7.36574
54579.6 8.79750
54593.5 11.4080
54600.5 13.5681
54607.5 16.7428
54614.5 21.5257
54621.5 28.7306
54631.3 43.1529
54641.0 52.4920
54650.8 42.5285
54660.5 27.9634
54671.3 18.0030
54682.0 12.7782
54692.8 9.91060
54703.6 8.22229
54714.3 7.15887
54725.1 6.45311
54746.6 5.61121
54768.1 5.15625
54778.9 5.01006
54789.7 4.90580
54800.4 4.85085
54811.2 4.90231
54816.6 5.05204
54819.3 5.21670
54822.0 5.52066
54824.6 6.14409
54826.0 6.72444
54827.3 7.67979
54828.7 9.42872
54829.4 10.8711
54830.0 13.0204
54830.7 16.4525
54831.4 22.1024
54832.0 32.1317
54832.7 50.5606
54833.4 79.0049
54834.0 98.0871
54834.7 79.7609
54835.3 52.0828
54835.9 34.1400
54836.6 23.9855
54837.2 18.0813
54837.9 14.4462
54838.5 12.0798
54839.1 10.4636
54840.4 8.48177
54841.7 7.34483
54843.0 6.63833
54845.5 5.84251
54848.1 5.42173
54850.6 5.17158
54855.7 4.89476
54860.8 4.74780
54865.9 4.65710
54876.2 4.54927
54896.6 4.43987
54917.0 4.37869
54957.9 4.30595
54998.7 4.26224
55039.6 4.23280
55080.4 4.21171
55162.1 4.18372
55243.8 4.16611
55325.6 4.15397
55489.0 4.13795
55652.4 4.12721
55815.8 4.11893
56142.6 4.10590
56469.5 4.09642
56632.9 4.09404
56796.3 4.09561
56959.7 4.10756
57041.4 4.12358
57123.1 4.15668
57164.0 4.18639
57204.8 4.23330
57245.7 4.31211
57286.6 4.45672
57307.0 4.57780
57327.4 4.76011
57347.8 5.05109
57368.3 5.55344
57388.7 6.52488
57398.9 7.38460
57409.1 8.75313
57419.3 11.1067
57429.5 15.5774
57434.7 19.4275
57439.8 25.2780
57444.9 34.5019
57450.0 49.0842
57456.5 76.8257
57463.0 95.9173
57469.5 78.2482
57476.0 50.8795
57480.3 38.1584
57484.6 29.4040
57493.2 19.2072
57501.7 13.9929
57510.3 11.0502
57518.8 9.24691
57527.4 8.06778
57544.5 6.67545
57561.6 5.91624
57578.8 5.45743
57613.0 4.95395
57647.2 4.69802
57681.5 4.55095
57749.9 4.40000
57818.4 4.33396
57886.8 4.30812
58023.8 4.33042
58160.7 4.46416
58229.2 4.61071
58297.6 4.87229
58366.1 5.38348
58400.3 5.83550
58434.6 6.55130
58468.8 7.77002
58503.0 10.0527
58520.2 11.9878
58537.3 14.8909
58554.4 19.3800
58571.5 26.3391
58594.3 39.9278
58617.0 49.1001
58639.8 40.1964
58662.5 26.6981
58687.5 17.4008
58712.5 12.4609
58737.5 9.72116
58762.4 8.09041
58787.4 7.05316
58812.4 6.35693
58862.4 5.51157
58912.3 5.03684
58962.3 4.74222
59062.2 4.40440
59162.2 4.21760
59212.1 4.15275
59262.1 4.10326
59312.1 4.07725
59337.1 4.08388
59362.0 4.12328
59374.5 4.16828
59387.0 4.24625
59399.5 4.38491
59412.0 4.64686
59424.5 5.19697
59430.7 5.71542
59437.0 6.58327
59443.2 8.17827
59446.4 9.50947
59449.5 11.5035
59452.6 14.6572
59455.7 19.9178
59458.8 29.2902
59462.0 46.5787
59465.0 73.4057
59468.0 92.2911
59471.0 75.7973
59474.0 49.5683
59477.2 31.7437
59480.4 21.9479
59483.6 16.3765
59486.8 13.0031
59490.0 10.8179
59493.2 9.33313
59499.5 7.50858
59505.9 6.46787
59512.3 5.81695
59525.0 5.06712
59537.8 4.65463
59550.5 4.39102
59563.3 4.20002
59576.0 4.04532
59601.5 3.76412
59614.3 3.60506
59627.0 3.40420
59639.8 3.11491
59646.1 2.90721
59652.5 2.62314
59658.9 2.20703
59665.2 1.54934
59671.6 0.527346
59673.2 0.334664
59674.8 0.509610
59675.6 0.999934
59676.4 2.11535
59677.2 4.54596
59677.6 6.63068
59678.0 9.51981
59678.5 15.0041
59679.0 22.5284
59680.0 39.3593
59680.5 43.0874
59681.0 42.1250
59682.0 34.0298
59682.9 27.1285
59683.8 22.1746
59684.7 18.6969
59685.6 16.2129
59687.3 13.0032
59689.1 11.0718
59690.8 9.80329
59692.6 8.91414
59696.1 7.75887
59699.6 7.04573
59703.2 6.56342
59710.2 5.95381
59717.3 5.58397
59724.3 5.33584
59738.4 5.02197
59752.5 4.83004
59766.5 4.69952
59794.7 4.53101
59851.0 4.35020
59907.4 4.24938
59963.7 4.18115
60020.0 4.12862
60076.4 4.08114
60104.6 4.05162
60118.6 4.03110
60125.7 4.04648
60129.2 4.23521
60131.0 5.06331
60131.4 5.83255
60131.8 7.63118
60132.1 9.54585
60132.3 13.1949
60132.5 21.0866
60132.6 28.5290
60132.7 40.2390
60132.9 64.2216
60133.0 79.9470
60133.2 65.3712
60133.3 43.7706
60133.5 27.2383
60133.6 18.6722
60134.0 11.3861
60134.3 8.41034
60134.6 6.99979
60135.3 5.68792
60136.0 5.11994
60137.3 4.63950
60138.7 4.44037
60144.0 4.20299
60154.7 4.11215
60176.1 4.06742
60218.9 4.03178
60304.6 3.98598
60475.9 3.90944
60647.2 3.82904
60732.8 3.78183
60754.2 3.77288
60775.6 3.78098
60786.4 3.81454
60797.1 3.94213
60802.4 4.13780
60805.1 4.33571
60807.8 4.68881
60810.4 5.40065
60811.8 6.05083
60813.1 7.10335
60814.5 8.98084
60815.8 12.7083
60816.5 16.0500
60817.1 21.3416
60817.8 30.0903
60818.5 44.4958
60819.2 70.2547
60820.0 88.5292
60820.8 72.8975
60821.5 47.8002
60822.0 36.1261
60822.5 28.1512
60823.5 18.6676
60824.5 13.7050
60825.5 10.8560
60826.5 9.07203
60827.4 7.90651
60829.4 6.51008
60831.4 5.73276
60833.3 5.25843
60837.3 4.72518
60841.2 4.44539
60845.1 4.27828
60853.0 4.09328
60868.7 3.93551
60884.4 3.86518
60915.9 3.79493
60947.3 3.75364
61010.2 3.69299
61073.0 3.63818
61135.9 3.58074
61198.8 3.51662
61324.5 3.35335
61450.3 3.10385
61513.1 2.91794
61576.0 2.65741
61638.9 2.26557
61670.3 1.98601
61701.7 1.61725
61733.2 1.11952
61748.9 0.810766
61764.6 0.469185
61780.3 0.145554
61788.2 0.0444101
61796.1 0.0629555
61800.0 0.157616
61803.9 0.347229
61807.8 0.678478
61811.8 1.22219
61815.7 2.08637
61819.6 3.43528
61823.6 5.51330
61827.5 8.65257
61831.9 13.9148
61836.2 21.3531
61845.0 38.1291
61849.4 41.9989
61853.8 41.2972
61862.5 33.5863
61871.1 26.2626
61879.6 21.1310
61888.1 17.6511
61896.6 15.2293
61905.1 13.4815
61913.6 12.1758
61930.6 10.3769
61947.7 9.20897
61964.7 8.39689
61998.7 7.34829
62032.8 6.70414
62066.8 6.26998
62134.9 5.72287
62203.0 5.39269
62271.1 5.17189
62407.3 4.89582
62543.4 4.73318
62679.6 4.63450
62747.7 4.60512
62815.8 4.59152
62883.9 4.60363
62917.9 4.64842
62926.4 4.68967
62934.9 4.80517
62939.2 4.96421
62943.5 5.39493
62945.6 5.94808
62946.7 6.45969
62947.7 7.29805
62948.8 8.83394
62949.8 11.9780
62950.4 14.9197
62950.9 19.7991
62951.4 28.4064
62952.0 44.0924
62952.5 68.5424
62953.0 85.5057
62953.5 70.1344
62954.0 46.0845
62954.6 30.0237
62955.1 21.1424
62955.7 16.0701
62956.2 12.9855
62956.7 10.9946
62957.3 9.64327
62958.4 7.99781
62959.4 7.05778
62960.5 6.48077
62962.7 5.82852
62967.0 5.28906
62971.3 5.07727
62979.9 4.91708
62988.5 4.86538
63005.7 4.85281
63022.9 4.88643
63040.1 4.94771
63057.3 5.03625
63091.8 5.32691
63126.2 5.89933
63143.4 6.39991
63160.6 7.17798
63177.9 8.46408
63195.1 10.7569
63212.3 15.2389
63220.9 19.0651
63229.5 24.5903
63243.3 37.2590
63257.0 46.1409
63270.8 38.3210
63284.5 25.9263
63293.3 20.2615
63302.0 16.3043
63319.6 11.6122
63337.1 9.16258
63354.6 7.75971
63372.2 6.88860
63389.7 6.31287
63424.8 5.62197
63459.9 5.23693
63494.9 4.99836
63565.1 4.72537
63635.2 4.57602
63705.3 4.48176
63845.6 4.36675
63985.9 4.29602
64056.0 4.26998
64126.2 4.25027
64196.3 4.24216
64231.4 4.24844
64266.4 4.27222
64301.5 4.34110
64319.1 4.41790
64336.6 4.56374
64345.4 4.68788
64354.1 4.87616
64362.9 5.17779
64371.7 5.69767
64380.4 6.69628
64384.8 7.56980
64389.2 8.94164
64393.6 11.2562
64398.0 15.5052
64400.1 19.0351
64402.3 24.2292
64404.5 32.0547
64406.7 43.8495
64409.9 68.6164
64413.0 85.8191
64416.2 70.3579
64419.3 46.1354
64421.6 33.7164
64423.9 25.5614
64426.2 20.1543
64428.5 16.5057
64433.1 12.0989
64437.7 9.68947
64442.3 8.23641
64446.9 7.29764
64456.2 6.20008
64465.4 5.60460
64474.6 5.24490
64483.8 5.00952
64493.0 4.84664
64511.4 4.63979
64529.9 4.51668
64548.3 4.43622
64566.7 4.37988
64603.6 4.30625
64640.5 4.25976
64714.2 4.20206
64787.9 4.16486
64861.6 4.13655
65009.0 4.09151
65598.8 3.93902
65893.6 3.84918
66041.1 3.79528
66188.5 3.73244
66335.9 3.65796
66483.4 3.57203
66557.1 3.53163
66593.9 3.51872
66630.8 3.52103
66667.6 3.56465
66686.1 3.62533
66704.5 3.74863
66722.9 4.02041
66732.2 4.28464
66741.4 4.74045
66750.6 5.61719
66755.2 6.38850
66759.8 7.60650
66764.4 9.69046
66769.0 13.6206
66771.3 17.0057
66773.6 22.1319
66775.9 30.1863
66778.2 42.9232
66781.1 66.5679
66784.0 82.0387
66786.9 65.9427
66789.8 42.2477
66792.3 28.8532
66794.7 20.6918
66797.2 15.6563
66799.6 12.4211
66804.6 8.73585
66809.5 6.82892
66814.4 5.72573
66819.3 5.03241
66829.2 4.24139
66839.0 3.81996
66848.8 3.56435
66868.5 3.27288
66888.2 3.12121
66898.0 3.08942
66907.9 3.11171
66917.7 3.26547
66922.6 3.46295
66927.5 3.85032
66932.5 4.66667
66934.9 5.41869
66937.4 6.63381
66939.8 8.72260
66942.3 12.6134
66944.8 20.6046
66946.0 27.7125
66947.2 38.2339
66949.1 62.6736
66951.0 81.5712
66952.9 69.0672
66954.8 46.3850
66956.5 32.0052
66958.3 23.2391
66960.0 17.8262
66961.7 14.3468
66965.2 10.3093
66968.6 8.16127
66972.1 6.87901
66975.5 6.04669
66982.4 5.05384
66989.3 4.49280
66996.2 4.13629
67010.0 3.70637
67023.8 3.44902
67037.6 3.26942
67065.2 3.01196
67092.8 2.80850
67120.4 2.61925
67175.7 2.21464
67230.9 1.69748
67258.5 1.36705
67286.1 0.974141
67313.7 0.528098
67327.5 0.311819
67341.3 0.151673
67348.2 0.123309
67355.1 0.161366
67362.0 0.308473
67368.9 0.634833
67375.8 1.25736
67382.7 2.37199
67389.6 4.30314
67396.5 7.55745
67402.9 12.3151
67409.3 19.1053
67422.0 34.7555
67428.4 38.5818
67434.8 38.2117
67447.5 31.4535
67461.6 24.0801
67475.6 19.1331
67489.7 15.9069
67503.8 13.7250
67517.8 12.1789
67531.9 11.0396
67560.0 9.48787
67588.2 8.49058
67616.3 7.79998
67672.5 6.91057
67728.8 6.36405
67785.1 5.99458
67897.6 5.52628
68010.1 5.24042
68122.6 5.04647
68347.6 4.79667
68572.7 4.63864
68797.7 4.52581
69247.7 4.36465
69697.8 4.23938
70147.9 4.11928
70372.9 4.05348
70597.9 3.97831
70710.4 3.93511
70822.9 3.88644
70935.5 3.83374
70963.6 3.82516
70991.7 3.83556
71005.8 3.87068
71019.8 3.99602
71026.9 4.18101
71030.4 4.36499
71033.9 4.68949
71037.4 5.33499
71039.2 5.91922
71040.9 6.86068
71042.7 8.52565
71044.5 11.8039
71045.3 14.7230
71046.2 19.3188
71047.1 26.8653
71048.0 39.2512
71049.0 61.3659
71050.0 76.8044
71051.0 63.0333
71052.0 41.3362
71053.1 27.1118
71054.1 19.1643
71055.1 14.5402
71056.1 11.6894
71057.2 9.83050
71058.2 8.55864
71060.2 6.98582
71062.3 6.08909
71064.3 5.52976
71068.4 4.89548
71072.5 4.56008
71076.5 4.36055
71084.7 4.14109
71092.9 4.02643
71101.0 3.95718
71117.4 3.87730
71150.0 3.79901
71182.7 3.75318
71313.3 3.62111
71378.6 3.55366
71443.9 3.47797
71574.5 3.28566
71705.1 2.99602
71770.5 2.78390
71835.8 2.49175
71901.1 2.06304
71933.7 1.76506
71966.4 1.38272
71999.0 0.889087
72031.7 0.299852
72048.0 0.0574828
72056.2 0.0157692
72064.4 0.101585
72072.5 0.436708
72076.6 0.764629
72080.7 1.25830
72084.8 1.98454
72088.8 3.03638
72092.9 4.54002
72097.0 6.65767
72102.8 11.0393
72108.5 17.3529
72120.0 32.1057
72125.8 35.8470
72131.5 35.6712
72143.0 29.5691
72150.1 25.4668
72157.3 22.0720
72171.5 17.2817
72185.8 14.2823
72200.1 12.3052
72214.3 10.9290
72228.6 9.92583
72257.1 8.57350
72285.6 7.71041
72314.1 7.11446
72371.2 6.34562
72428.2 5.86921
72485.3 5.54246
72599.4 5.11524
72713.5 4.84083
72770.5 4.73875
72827.5 4.66114
72856.1 4.63609
72884.6 4.62713
72913.1 4.64701
72941.6 4.72600
72970.2 4.94784
72984.4 5.18423
72998.7 5.61061
73012.9 6.45381
73020.1 7.20348
73027.2 8.39062
73034.3 10.4006
73041.5 14.1144
73045.0 17.2121
73048.6 21.7627
73052.2 28.6438
73055.7 38.9935
73060.9 60.9236
73066.0 76.3941
73071.2 62.9974
73076.3 41.6369
73081.2 28.2218
73086.0 20.3837
73090.9 15.6966
73095.7 12.7470
73105.5 9.43840
73115.2 7.73739
73124.9 6.74776
73134.6 6.11940
73154.1 5.38518
73173.5 4.97658
73193.0 4.71572
73212.4 4.53094
73231.8 4.38892
73270.7 4.17107
73309.6 3.99272
73387.4 3.65002
73465.2 3.22314
73504.1 2.93328
73542.9 2.55026
73581.8 2.01354
73601.3 1.65760
73620.7 1.22315
73659.6 0.203332
73669.3 0.0994381
73674.2 0.165291
73679.0 0.384074
73683.9 0.859220
73688.8 1.76429
73693.6 3.38695
73698.5 6.17869
73703.1 10.4759
73707.7 16.7771
73717.0 31.9497
73721.6 36.0763
73726.3 36.2335
73735.5 30.4967
73741.9 26.0670
73748.3 22.4567
73754.7 19.6621
73761.0 17.5102
73773.8 14.5084
73786.5 12.5678
73799.2 11.2332
73812.0 10.2676
73837.5 8.97461
73863.0 8.15365
73888.4 7.58858
73939.4 6.86216
73990.4 6.41484
74041.3 6.11100
74143.3 5.72236
74245.2 5.48206
74347.1 5.31706
74551.0 5.10197
74754.8 4.96513
74958.7 4.86857
75366.4 4.73812
75774.1 4.65135
76181.8 4.58763
76997.3 4.49676
77812.7 4.43180
78220.4 4.40517
78628.1 4.38195
79035.8 4.36351
79239.7 4.35774
79443.5 4.35707
79647.4 4.36782
79749.3 4.38253
79851.3 4.41019
79953.2 4.46334
80004.2 4.50764
80055.1 4.57226
80106.1 4.66823
80157.1 4.80718
80182.5 4.88591
80208.0 4.92673
80220.8 4.88019
80227.1 4.81010
80233.5 4.67692
80239.9 4.42564
80246.2 3.93205
80249.4 3.51398
80252.6 2.93227
80255.8 2.44983
80257.4 3.13302
80258.2 4.55983
80259.0 7.85014
80259.5 11.6582
80260.0 17.3182
80261.0 30.8987
80261.5 34.6759
80262.0 34.9036
80263.0 29.9146
80263.8 25.6262
80264.6 22.2096
80265.4 19.6562
80266.1 17.7708
80267.7 15.1963
80269.2 13.6081
80270.8 12.5477
80272.4 11.8133
80275.5 10.8855
80278.6 10.3605
80281.7 10.0557
80287.9 9.80774
80300.3 10.0357
80312.8 10.8369
80337.6 14.1773
80350.1 17.1300
80362.5 21.3761
80382.8 31.1368
80403.0 37.5040
80423.3 30.7242
80443.5 20.7887
80459.1 15.6136
80474.6 12.3057
80490.2 10.1765
80505.7 8.76408
80536.8 7.09938
80567.9 6.20850
80599.1 5.68124
80630.2 5.34453
80692.4 4.95492
80754.6 4.74566
80816.8 4.61954
80941.2 4.47990
81065.7 4.40895
81127.9 4.38870
81190.1 4.37968
81252.3 4.39181
81283.4 4.41620
81314.5 4.47038
81330.1 4.51994
81345.6 4.59819
81361.2 4.72855
81376.8 4.96286
81392.3 5.43647
81400.1 5.87184
81407.9 6.58820
81415.6 7.87859
81419.5 8.93955
81423.4 10.5015
81427.3 12.9232
81431.2 16.8777
81435.1 23.7006
81439.0 35.7428
81443.0 55.3142
81447.0 68.9518
81451.0 56.7272
81455.0 37.5130
81457.6 28.8544
81460.1 22.7866
81465.2 15.5716
81470.2 11.7914
81475.3 9.62223
81480.3 8.27671
81485.4 7.38864
81495.5 6.32851
81505.6 5.74376
81515.7 5.38654
81535.9 4.98847
81556.1 4.78108
81576.3 4.65809
81596.5 4.57827
81616.7 4.52297
81657.1 4.45217
81697.5 4.40919
81778.3 4.35980
81859.1 4.33238
81939.9 4.31555
82101.5 4.30165
82263.1 4.31817
82344.0 4.34970
82424.8 4.41773
82505.6 4.57248
82546.0 4.72452
82586.4 4.98663
82626.8 5.48233
82647.0 5.90675
82667.2 6.55598
82687.4 7.60602
82707.6 9.42069
82727.8 12.8023
82748.0 19.4118
82766.0 29.1591
82784.0 36.1789
82802.0 30.4211
82820.0 20.9971
82833.3 16.1012
82846.6 12.8595
82859.8 10.7125
82873.1 9.25362
82886.4 8.22987
82899.7 7.49793
82906.3 7.22192
82912.9 7.03288
82916.3 7.01903
82919.6 7.20119
82921.2 7.53205
82922.9 8.43273
82923.7 9.49793
82924.6 11.7550
82925.0 13.9418
82925.4 17.5394
82925.8 23.9645
82926.2 35.8454
82926.6 54.4506
82927.0 67.0781
82927.4 55.4877
82927.8 37.7394
82928.1 27.7575
82928.4 21.4519
82928.8 17.4405
82929.1 14.7976
82929.7 11.6995
82930.4 10.0420
82931.6 8.42029
82932.9 7.67132
82935.5 6.99338
82938.0 6.68093
82943.1 6.36195
82948.3 6.17697
82958.5 5.92929
82968.7 5.74842
82989.2 5.47948
83009.6 5.28276
83050.6 5.01244
83091.5 4.83710
83173.3 4.62716
83255.2 4.50808
83337.0 4.43193
83418.8 4.37884
83582.5 4.30825
83746.2 4.26109
83909.9 4.22526
84073.5 4.20113
84114.5 4.20330
84155.4 4.22605
84175.8 4.26597
84196.3 4.38566
84206.5 4.54945
84211.7 4.70742
84216.8 4.98134
84221.9 5.51800
84224.4 6.00025
84227.0 6.77734
84229.6 8.15183
84232.1 10.8648
84233.4 13.3152
84234.7 17.2273
84235.9 23.7828
84237.2 34.8667
84238.6 53.5703
84240.0 66.0905
84241.4 53.8355
84242.8 35.3769
84244.5 21.8608
84246.1 15.0340
84247.8 11.3910
84249.4 9.28875
84251.1 7.96831
84252.7 7.09959
84256.0 6.05839
84259.4 5.48603
84262.7 5.13850
84269.3 4.75547
84275.9 4.55928
84282.5 4.44522
84295.8 4.32299
84322.3 4.22394
84348.8 4.18197
84375.2 4.16005
84401.7 4.16103
84415.0 4.19102
84428.2 4.31220
84434.9 4.49942
84438.2 4.68763
84441.5 5.02184
84444.8 5.68180
84446.4 6.27432
84448.1 7.21476
84449.8 8.83709
84451.4 11.8701
84452.2 14.4545
84453.1 18.3276
84453.9 24.2899
84454.7 33.3586
84455.9 52.2448
84457.0 65.7550
84458.2 54.6358
84459.3 36.5633
84460.1 27.7208
84460.8 21.7347
84461.6 17.5905
84462.4 14.7388
84463.9 11.1692
84465.5 9.15065
84467.0 7.90809
84468.6 7.09076
84471.7 6.11546
84474.8 5.57550
84477.9 5.24353
84484.1 4.86957
84490.3 4.67166
84496.5 4.55243
84508.9 4.41908
84533.7 4.30367
84558.5 4.25212
84608.1 4.20249
84657.6 4.17619
84756.8 4.14405
84856.0 4.12111
85252.6 4.04545
85451.0 4.00595
85649.3 3.96369
85748.5 3.94480
85847.6 3.94127
85897.2 3.96444
85922.0 3.99596
85946.8 4.05970
85971.6 4.19988
85984.0 4.33611
85996.4 4.57164
86008.8 5.02842
86015.0 5.43644
86021.2 6.09601
86027.4 7.27274
86030.5 8.24211
86033.6 9.68907
86036.7 11.9801
86039.8 15.8841
86042.9 23.1238
86044.4 29.0426
86046.0 37.2335
86048.5 55.3258
86051.0 65.5190
86053.5 50.8256
86056.0 31.5919
86057.6 23.7091
86059.1 18.2435
86062.1 11.8296
86065.1 8.53747
86068.1 6.69850
86071.1 5.59653
86074.1 4.90302
86080.1 4.17994
86086.2 4.02538
86089.2 4.18637
86092.2 4.62623
86095.2 5.60858
86098.2 7.82522
86099.7 9.93533
86101.2 13.3377
86102.7 19.0848
86104.2 28.7668
86106.1 48.7946
86108.0 66.2539
86109.9 58.7649
86111.8 41.3376
86113.1 32.1202
86114.4 25.5860
86115.7 21.0013
86117.0 17.7292
86119.6 13.5385
86122.2 11.0728
86124.8 9.49835
86127.4 8.42677
86132.6 7.09182
86137.8 6.30777
86143.0 5.80198
86153.4 5.19607
86163.8 4.85162
86174.2 4.63238
86194.9 4.37161
86215.7 4.22265
86236.5 4.12613
86278.1 4.00617
86319.6 3.93095
86361.2 3.87565
86444.4 3.78991
86610.6 3.63883
86776.9 3.45739
86943.2 3.18925
87026.3 2.99172
87109.5 2.71698
87192.6 2.30793
87234.2 2.01932
87275.7 1.64275
87317.3 1.14257
87338.1 0.836560
87358.9 0.500416
87379.7 0.176393
87390.1 0.0601270
87400.4 0.0296607
87410.8 0.177547
87416.0 0.370536
87421.2 0.688126
87426.4 1.18416
87431.6 1.93027
87436.8 3.03023
87442.0 4.61099
87449.5 8.06034
87457.0 13.1977
87472.0 25.8958
87479.5 29.5505
87487.0 29.9494
87502.0 25.5608
87514.3 21.4116
87526.5 18.1549
87538.7 15.7455
87551.0 13.9684
87563.2 12.6493
87569.4 12.1346
87575.5 11.7235
87581.6 11.4647
87584.7 11.4417
87587.7 11.5652
87590.8 12.0023
87592.3 12.4676
87593.8 13.2661
87595.4 14.7034
87596.9 17.5045
87597.7 19.9481
87598.4 23.6121
87599.2 29.4133
87600.0 38.3871
87601.0 56.3579
87602.0 69.1810
87603.0 58.3200
87604.0 40.7675
87604.7 32.2941
87605.4 26.4842
87606.1 22.5114
87606.8 19.7371
87608.2 16.2756
87609.6 14.2985
87610.9 13.0630
87612.3 12.2337
87615.1 11.2049
87617.8 10.5929
87620.6 10.1815
87626.1 9.64363
87631.6 9.28350
87637.1 9.00964
87648.2 8.59122
87659.2 8.26679
87670.2 7.99794
87692.3 7.56628
87714.4 7.22870
87736.4 6.95507
87780.5 6.53636
87824.7 6.23013
87868.8 5.99612
87957.0 5.66178
88045.3 5.43417
88133.5 5.26900
88310.0 5.04477
88486.5 4.89897
88662.9 4.79601
89015.9 4.65885
89368.9 4.57013
89721.8 4.50676
90427.8 4.41927
91133.7 4.35861
91486.7 4.33414
91839.6 4.31308
92192.6 4.29679
92369.1 4.29200
92545.5 4.29188
92722.0 4.30145
92810.3 4.31358
92898.5 4.33532
92986.7 4.37548
93030.9 4.40883
93075.0 4.45945
93119.1 4.54507
93141.2 4.61542
93163.2 4.72542
93185.3 4.92272
93196.3 5.09290
93207.3 5.36545
93218.4 5.85101
93223.9 6.25377
93229.4 6.85775
93234.9 7.82268
93240.4 9.47386
93246.0 12.5496
93251.5 18.5686
93256.2 27.1113
93261.0 32.9854
93265.8 27.5599
93270.5 19.1576
93274.8 14.1885
93279.0 11.2166
93283.3 9.40683
93287.5 8.26317
93296.0 6.98584
93304.4 6.35211
93312.9 6.00943
93321.4 5.81848
93338.3 5.66904
93355.2 5.68491
93372.2 5.80417
93406.0 6.32289
93439.9 7.38290
93473.8 9.62101
93490.7 11.7114
93507.6 15.1462
93524.6 21.1193
93541.5 31.7780
93558.8 48.8715
93576.0 60.7477
93593.3 50.0441
93610.5 33.2522
93627.1 22.6331
93643.7 16.4993
93660.3 12.8717
93676.9 10.6090
93710.1 8.09583
93743.3 6.81896
93776.5 6.08440
93809.7 5.62194
93876.1 5.08759
93942.5 4.79008
94008.9 4.58546
94075.3 4.38364
94108.5 4.24807
94116.8 4.23511
94125.1 4.33498
94129.3 4.56168
94133.4 5.26424
94135.5 6.15592
94137.6 8.09106
94138.6 9.95274
94139.6 13.0563
94140.7 18.4881
94141.7 28.0924
94142.9 45.7231
94144.0 60.1706
94145.2 52.3771
94146.3 36.6036
94147.4 25.9088
94148.5 19.4559
94149.6 15.5057
94150.7 12.9666
94151.8 11.2507
94152.9 10.0391
94155.1 8.48508
94157.3 7.54858
94159.5 6.94048
94163.9 6.20913
94168.3 5.79509
94172.6 5.53257
94181.4 5.22213
94190.2 5.04585
94199.0 4.93219
94216.5 4.79309
94251.7 4.65259
94286.8 4.57734
94357.0 4.49126
94427.3 4.43915
94567.8 4.37401
94708.3 4.33233
94989.3 4.27844
95270.3 4.24219
95551.3 4.21389
95832.3 4.18959
96394.3 4.14585
96956.2 4.10207
97518.2 4.05142
97799.2 4.02011
98080.2 3.98092
98220.7 3.95656
98361.2 3.92804
98501.7 3.90416
98536.9 3.91119
98572.0 3.95604
98589.5 4.03158
98598.3 4.10999
98607.1 4.25303
98615.9 4.54734
98620.3 4.82278
98624.7 5.28535
98629.0 6.14160
98631.2 6.86838
98633.4 7.96835
98635.6 9.74790
98637.8 12.8081
98640.0 18.5593
98642.2 29.8350
98644.1 45.9150
98646.0 56.9250
98647.9 46.7019
98649.8 30.9311
98650.9 24.0897
98652.1 19.2597
98654.3 13.3770
98656.6 10.2257
98658.8 8.39156
98661.1 7.23935
98663.4 6.47826
98667.9 5.56472
98672.4 5.05775
98676.9 4.74818
98686.0 4.40221
98695.0 4.22154
98704.1 4.11371
98722.2 3.99320
98758.4 3.88370
98794.6 3.82461
98867.0 3.73521
98939.4 3.63541
99011.8 3.48871
99048.0 3.37863
99084.2 3.22118
99120.4 2.97483
99138.5 2.79027
99156.6 2.53222
99174.7 2.14752
99183.7 1.87649
99192.8 1.52388
99201.8 1.05797
99210.9 0.464830
99215.4 0.166984
99219.9 0.0255165
99222.2 0.142722
99224.5 0.558262
99226.7 1.55645
99229.0 3.66095
99230.7 6.57847
99232.5 10.9651
99236.0 22.1044
99237.8 25.4770
99239.5 26.0215
99243.0 22.4810
99246.0 18.8769
99249.0 16.0387
99251.9 13.9438
99254.9 12.3984
99260.8 10.3223
99266.7 9.03172
99272.6 8.16251
99278.5 7.54381
99290.4 6.72504
99302.2 6.21107
99314.0 5.85960
99337.7 5.41113
99361.3 5.13715
99385.0 4.95253
99432.3 4.71895
99479.6 4.57677
99526.9 4.48062
99621.5 4.35770
99810.8 4.22814
100000 4.15742
100227 4.10388
100455 4.06961
100682 4.05236
100909 4.06085
101136 4.12688
101250 4.21016
101364 4.37047
101477 4.70486
101534 5.01464
101591 5.52721
101648 6.45867
101676 7.23740
101704 8.41447
101733 10.3091
101761 13.6153
101790 19.9743
101804 25.3606
101818 33.0780
101839 48.4949
101860 56.7276
101881 43.7171
101902 27.0715
101923 17.0459
101943 11.6132
101964 8.56191
101985 6.75214
102026 4.90259
102067 4.17301
102108 4.11887
102150 4.99558
102170 6.19312
102191 8.53711
102211 13.3422
102222 17.5029
102232 23.5690
102251 41.0600
102270 57.3881
102289 51.8089
102308 36.8704
102324 27.6101
102339 21.4917
102355 17.4263
102370 14.6416
102401 11.2112
102432 9.25653
102463 8.02439
102494 7.19412
102556 6.15726
102618 5.54186
102680 5.13672
102804 4.63031
102928 4.31511
103052 4.08622
103301 3.72665
103549 3.37306
103673 3.16272
103797 2.90554
103921 2.57069
103983 2.35994
104045 2.10966
104107 1.81171
104169 1.47393
104200 1.31528
104216 1.25771
104231 1.23978
104247 1.31597
104254 1.43318
104262 1.65846
104270 2.11221
104274 2.50480
104278 3.08361
104281 4.02564
104285 5.61905
104289 8.49811
104293 13.6962
104297 21.0958
104300 25.5683
104304 20.0294
104307 12.3303
104310 7.91473
104313 5.30698
104316 3.74066
104319 2.78275
104325 1.69461
104332 1.15691
104338 0.869257
104344 0.724706
104356 0.678835
104368 0.878890
104381 1.33423
104393 2.13277
104405 3.39253
104421 6.10077
104438 10.2749
104470 21.2100
104486 24.6560
104503 25.3441
104535 22.1196
104560 18.9849
104585 16.4225
104610 14.4662
104635 12.9855
104685 10.9408
104735 9.63787
104785 8.74606
104835 8.10471
104935 7.24858
105034 6.70748
105134 6.33858
105334 5.88186
105534 5.64743
105634 5.60164
105734 5.62295
105833 5.76894
105883 5.93637
105933 6.23052
105983 6.77452
106033 7.87170
106058 8.86147
106083 10.4216
106108 13.0061
106133 17.3101
106162 24.7956
106190 29.8673
106219 24.9794
106247 17.5290
106280 12.2071
106313 9.44994
106345 7.94733
106378 7.06048
106411 6.49815
106444 6.11981
106509 5.65613
106575 5.38991
106641 5.21954
106772 5.01409
106903 4.89151
107034 4.80669
107296 4.68860
107559 4.60094
107821 4.52373
107952 4.48429
108083 4.44010
108215 4.38579
108247 4.37527
108280 4.39026
108297 4.44306
108313 4.63760
108321 4.92347
108325 5.20089
108329 5.67469
108334 6.55661
108336 7.32041
108338 8.41116
108340 10.2132
108342 13.0552
108344 17.9582
108346 26.6263
108348 41.9164
108350 52.7793
108352 44.2682
108354 30.4642
108356 22.5982
108358 17.7521
108359 14.5312
108361 12.3313
108364 9.64988
108367 8.15654
108370 7.24342
108374 6.64394
108380 5.92712
108386 5.52731
108393 5.27899
108406 4.99454
108418 4.84008
108431 4.74449
108457 4.63318
108483 4.56973
108508 4.52817
108559 4.47437
108662 4.41001
108764 4.36359
108969 4.27951
109174 4.18267
109379 4.04589
109482 3.94632
109584 3.80612
109687 3.58795
109738 3.42374
109789 3.19227
109840 2.83880
109866 2.58285
109892 2.23792
109917 1.75331
109930 1.43465
109943 1.05072
109968 0.164361
109975 0.0441141
109981 0.155781
109984 0.391568
109988 0.838381
109991 1.60772
109994 2.85849
109998 5.41094
110002 9.39249
110010 19.9608
110014 23.4387
110018 24.3244
110026 21.5376
110034 17.7470
110042 14.8842
110051 12.8766
110059 11.4488
110075 9.60800
110092 8.50609
110108 7.78824
110116 7.53361
110124 7.35323
110132 7.28373
110141 7.50535
110145 7.94335
110147 8.38616
110149 9.08481
110151 10.3718
110153 12.6879
110155 17.4381
110156 21.6607
110157 28.4425
110159 43.2198
110160 53.9764
110162 46.1834
110163 32.1425
110164 25.1651
110165 20.2497
110166 16.9472
110167 14.6741
110170 11.8801
110172 10.3626
110174 9.36944
110176 8.71020
110180 7.91833
110185 7.44547
110189 7.14297
110198 6.75968
110207 6.52125
110215 6.35173
110233 6.11418
110250 5.94613
110267 5.81585
110302 5.62033
110337 5.47673
110372 5.36509
110441 5.20074
110511 5.08434
110581 4.99687
110720 4.87289
110859 4.78801
110998 4.72529
111277 4.63662
111555 4.57456
111833 4.52671
112390 4.45254
112947 4.39006
113504 4.32455
113782 4.28305
114060 4.22315
114199 4.17568
114269 4.14194
114339 4.09535
114408 4.02391
114443 3.97010
114478 3.89287
114513 3.77034
114530 3.67630
114547 3.54045
114565 3.32565
114574 3.16302
114582 2.93299
114591 2.58344
114600 1.99500
114604 1.52363
114608 0.878485
114613 0.146601
114615 0.251779
114616 0.938234
114617 2.69793
114618 4.94474
114619 8.86970
114620 18.7348
114621 22.1356
114622 22.8750
114623 20.2679
114624 17.3119
114626 15.0281
114628 11.9598
114630 10.0787
114633 8.93364
114638 7.56029
114643 6.80681
114647 6.31828
114652 5.98284
114662 5.55626
114672 5.29136
114682 5.11373
114701 4.88703
114720 4.74666
114740 4.65041
114779 4.52404
114818 4.44021
114857 4.37642
114935 4.27069
115012 4.15862
115051 4.08590
115090 3.98782
115129 3.83744
115149 3.72397
115168 3.56252
115188 3.30861
115197 3.11920
115207 2.85428
115217 2.45367
115227 1.80568
115232 1.30996
115236 0.673996
115241 0.0810115
115244 0.368598
115245 1.08252
115246 2.64624
115247 5.03492
115248 8.77924
115250 18.8040
115251 22.1771
115252 23.1215
115254 20.6407
115256 17.9950
115257 15.7494
115260 12.7145
115263 10.7865
115266 9.57382
115269 8.70559
115272 8.09570
115278 7.26932
115283 6.73119
115289 6.35976
115301 5.88479
115313 5.58969
115325 5.39143
115348 5.13830
115372 4.98373
115395 4.87907
115442 4.74540
115489 4.66260
115536 4.60550
115630 4.53023
115724 4.48125
115818 4.44559
116006 4.39447
116382 4.32491
116758 4.26727
117134 4.20361
117322 4.16317
117510 4.11012
117698 4.03156
117792 3.97348
117886 3.89116
117980 3.76204
118027 3.66415
118074 3.52449
118097 3.42937
118121 3.30795
118144 3.14753
118168 2.92588
118191 2.60116
118203 2.37545
118215 2.08967
118226 1.71962
118238 1.28037
118244 1.08993
118250 1.08522
118253 1.29229
118256 1.81128
118259 2.95265
118260 3.96792
118262 5.31528
118264 8.53401
118266 13.2643
118270 27.0282
118272 35.2355
118275 43.4476
118279 60.5027
118280 63.0944
118283 52.6555
118285 38.1100
118287 29.7943
118289 24.4627
118291 20.7885
118293 18.1681
118297 14.7498
118301 12.6503
118306 11.2109
118310 10.2093
118318 8.87199
118326 8.01259
118334 7.42690
118350 6.66652
118366 6.19808
118382 5.88070
118398 5.65146
118414 5.47903
118446 5.23366
118478 5.06873
118511 4.94932
118543 4.85910
118607 4.73048
118671 4.64241
118800 4.52678
118928 4.45070
119057 4.39477
119121 4.37480
119186 4.37308
119218 4.39895
119250 4.50344
119266 4.66095
119274 4.81788
119282 5.08900
119290 5.62250
119294 6.08806
119298 6.82142
119302 8.05785
119306 10.3341
119308 12.2250
119310 15.0057
119312 19.1911
119314 25.4935
119317 38.8818
119320 48.3582
119323 40.1644
119326 27.0948
119328 20.4636
119330 16.2313
119332 13.2509
119334 11.3043
119338 8.85699
119342 7.52325
119346 6.68793
119350 6.15541
119358 5.51460
119367 5.15867
119375 4.94362
119391 4.70045
119407 4.56888
119423 4.48747
119456 4.38828
119488 4.32655
119521 4.29417
119537 4.31309
119553 4.44513
119561 4.66768
119566 4.89663
119570 5.28684
119574 6.04615
119578 7.62365
119580 9.20299
119582 11.7173
119584 16.0960
119586 23.9166
119588 37.9102
119590 48.2328
119592 40.9955
119594 28.5857
119597 19.2454
119599 14.1472
119602 11.2571
119604 9.49929
119606 8.35859
119609 7.57748
119613 6.61936
119618 6.04927
119623 5.68683
119633 5.26628
119642 5.03106
119652 4.88577
119671 4.71524
119690 4.61946
119709 4.55794
119747 4.48258
119823 4.40456
119900 4.36045
120052 4.30367
120205 4.26085
120358 4.22070
120510 4.17660
120663 4.11965
120739 4.10251
120759 4.12897
120778 4.24790
120787 4.43761
120792 4.62910
120797 4.95757
120802 5.60299
120804 6.16541
120806 6.99206
120809 8.39016
120811 10.8361
120813 15.4492
120816 24.0487
120818 37.7521
120820 47.4819
120822 39.8453
120824 27.4699
120826 20.0914
120828 15.6490
120830 12.6269
120831 10.7328
120835 8.41075
120838 7.15351
120842 6.39842
120845 5.90856
120852 5.32898
120859 5.00842
120866 4.81004
120880 4.58403
120894 4.45957
120908 4.38180
120936 4.28949
120992 4.19619
121048 4.14113
121160 4.05543
121271 3.96127
121383 3.82188
121439 3.71403
121495 3.55517
121551 3.29865
121578 3.10509
121606 2.83826
121634 2.45888
121662 1.92843
121676 1.62094
121690 1.38867
121697 1.39350
121704 1.61305
121711 2.27475
121718 3.78046
121724 6.03076
121729 9.59027
121740 19.2848
121746 22.6399
121751 23.6797
121762 21.5439
121769 19.4217
121777 17.5888
121791 14.9536
121805 13.3282
121820 12.3359
121849 11.3894
121878 11.2563
121906 11.6967
121935 12.7015
121993 16.9273
122042 23.1395
122090 27.1426
122139 22.4498
122187 15.7802
122218 12.7757
122250 10.7108
122313 8.29855
122375 7.04961
122438 6.33265
122501 5.88355
122563 5.58345
122689 5.21524
122814 5.00224
122940 4.86516
123191 4.69964
123441 4.60264
123692 4.53793
124194 4.45412
124696 4.39859
125198 4.35501
125699 4.31543
125825 4.30715
125950 4.30674
126013 4.32047
126044 4.33950
126076 4.37945
126107 4.47297
126123 4.56859
126138 4.73960
126154 5.08672
126162 5.40724
126170 5.92543
126178 6.85926
126185 8.69397
126189 10.3359
126193 12.9307
126197 17.2085
126201 24.3643
126206 37.0188
126210 45.9987
126215 38.4145
126219 26.1153
126223 18.1526
126228 13.6351
126232 10.9383
126236 9.24331
126241 8.10040
126245 7.33035
126254 6.36481
126262 5.80095
126271 5.45009
126288 5.04518
126306 4.82889
126323 4.69859
126357 4.55381
126392 4.47746
126427 4.43101
126496 4.37741
126565 4.34664
126634 4.32573
126773 4.29657
126911 4.27489
127049 4.26155
127119 4.26711
127188 4.31103
127222 4.38339
127240 4.45516
127257 4.57931
127274 4.81664
127283 5.02678
127292 5.35940
127300 5.95736
127305 6.45028
127309 7.20318
127313 8.45561
127315 9.45613
127317 10.8136
127320 12.9394
127322 16.1461
127324 21.7895
127326 30.9947
127328 43.1737
127330 48.0910
127332 35.6820
127334 21.6203
127336 15.0671
127337 11.3007
127338 8.80237
127340 7.33070
127343 5.68375
127346 4.96895
127349 4.69003
127351 4.65278
127357 5.03444
127363 6.02808
127369 8.01987
127375 12.1343
127377 15.7473
127380 20.8600
127385 34.4862
127390 46.3936
127395 41.2577
127400 29.3482
127404 21.6895
127408 16.8012
127413 13.6720
127417 11.5934
127426 9.11964
127434 7.76394
127443 6.93823
127451 6.39508
127469 5.74371
127486 5.37322
127503 5.14049
127537 4.87101
127572 4.72231
127606 4.62998
127675 4.52233
127743 4.46195
127812 4.42313
127949 4.37506
128087 4.34443
128224 4.31992
128361 4.29077
128430 4.26078
128464 4.23064
128482 4.24698
128490 4.50827
128492 4.81290
128495 5.56141
128496 6.46035
128497 8.09131
128498 12.2595
128498 16.0719
128499 22.3766
128499 35.6532
128500 44.1644
128501 38.4987
128501 26.0975
128502 17.7140
128503 13.1642
128503 10.5593
128504 8.96523
128506 7.13212
128507 6.28202
128510 5.45170
128513 5.08129
128519 4.75650
128524 4.61571
128536 4.49186
128548 4.43710
128594 4.36219
128686 4.32515
128871 4.30033
129242 4.27637
129612 4.26028
129982 4.24746
130722 4.22810
131462 4.21734
132202 4.22280
132573 4.23924
132943 4.27661
133313 4.36162
133498 4.44385
133683 4.58357
133868 4.84559
133960 5.07072
134053 5.42015
134146 6.00427
134238 7.07906
134284 7.98246
134331 9.32961
134377 11.4106
134423 14.6184
134482 20.3753
134540 23.6610
134599 19.0469
134657 12.9628
134718 9.12600
134779 7.09206
134839 5.96678
134900 5.30342
134961 4.88551
135022 4.60854
135143 4.27670
135264 4.09161
135386 3.97478
135629 3.82755
135872 3.71664
136115 3.58966
136236 3.49557
136358 3.33638
136418 3.19113
136479 2.91980
136510 2.66746
136525 2.47926
136540 2.22170
136555 1.84785
136570 1.28583
136585 0.517016
136593 0.397176
136597 0.831420
136601 2.21157
136603 4.08491
136605 7.09046
136610 15.1514
136612 18.0194
136615 18.9039
136620 17.1157
136624 14.7865
136628 12.8692
136632 11.4283
136636 10.3531
136644 8.90897
136652 8.02378
136660 7.43073
136669 7.02134
136685 6.52465
136718 6.17679
136750 6.32805
136783 6.98897
136816 8.56487
136832 10.0427
136848 12.3852
136865 16.2369
136881 22.6208
136901 34.3303
136920 42.7258
136940 35.7143
136959 24.3050
136981 16.0705
137003 11.7109
137025 9.27370
137047 7.81792
137069 6.87764
137091 6.24047
137135 5.44661
137180 4.98364
137224 4.68364
137312 4.31585
137400 4.08894
137488 3.92249
137664 3.64923
137841 3.35409
138017 2.90749
138105 2.54022
138149 2.28521
138193 1.95628
138237 1.52144
138281 0.959292
138304 0.656177
138326 0.437412
138337 0.436578
138348 0.605432
138359 1.09300
138364 1.53148
138370 2.15709
138380 3.99753
138390 6.95122
138410 15.1972
138420 18.1641
138430 19.1381
138451 17.4278
138465 15.5372
138479 13.8686
138507 11.4611
138535 9.93265
138563 8.92652
138619 7.71912
138676 7.05071
138788 6.40801
138901 6.22469
139013 6.37520
139126 6.97486
139182 7.56176
139239 8.47104
139295 9.85823
139351 11.8316
139370 12.6012
139389 13.4091
139408 14.4645
139418 15.4546
139427 17.4890
139439 23.3005
139450 33.1626
139462 38.6245
139473 37.6449
139487 34.8052
139500 32.4025
139537 27.3808
139575 22.8612
139649 15.5596
139715 11.6712
139781 9.39913
139847 8.02349
139912 7.14708
140044 6.15839
140176 5.67857
140307 5.49942
140373 5.53164
140439 5.69950
140505 6.13284
140538 6.54673
140570 7.21222
140603 8.32965
140636 10.3232
140669 14.1480
140702 21.8596
140731 33.4745
140760 42.3942
140789 36.2093
140818 25.2662
140842 19.0317
140865 15.0466
140888 12.4752
140912 10.7609
140959 8.72705
141005 7.63245
141052 6.99154
141099 6.60101
141193 6.24752
141286 6.29942
141380 6.85399
141427 7.46946
141473 8.50975
141520 10.2904
141567 13.3391
141624 19.2309
141680 23.9103
141737 20.9298
141793 15.4008
141848 11.7034
141903 9.51372
141959 8.18781
142014 7.33983
142124 6.36167
142235 5.83567
142345 5.51424
142455 5.29962
142676 5.03181
142897 4.87018
143118 4.76066
143559 4.61803
144001 4.52606
144221 4.49120
144442 4.46331
144663 4.44673
144773 4.44787
144884 4.46441
144994 4.51911
145049 4.58052
145104 4.69393
145160 4.92134
145187 5.12407
145215 5.44379
145242 5.97884
145270 6.94415
145298 8.84663
145311 10.4781
145325 12.8251
145348 18.4442
145370 22.6585
145393 19.5732
145415 14.2382
145434 11.1322
145453 9.17907
145471 7.93462
145490 7.11256
145527 6.14202
145565 5.61991
145602 5.30566
145640 5.10202
145715 4.85936
145790 4.72342
145864 4.63773
146014 4.53610
146164 4.47697
146314 4.43706
146613 4.38315
146913 4.34402
147213 4.30900
147512 4.27018
147587 4.26106
147662 4.26362
147700 4.28767
147737 4.38672
147756 4.53993
147765 4.69386
147774 4.96031
147784 5.47818
147788 5.92863
147793 6.60761
147798 7.73767
147802 9.71829
147807 13.4680
147812 20.7113
147816 31.7994
147820 39.8534
147824 33.6706
147828 23.3927
147833 16.1464
147837 12.1144
147842 9.79745
147846 8.40351
147850 7.47080
147855 6.83244
147863 6.04640
147872 5.58747
147881 5.30067
147898 4.96652
147916 4.78507
147933 4.67386
147968 4.54760
148003 4.47873
148038 4.43580
148108 4.38506
148248 4.33535
148388 4.30842
148668 4.27433
148948 4.24840
149507 4.20081
149647 4.19540
149717 4.20044
149787 4.22108
149857 4.28539
149892 4.35964
149927 4.50164
149962 4.80241
149979 5.08361
149997 5.54682
150014 6.36688
150032 7.96533
150041 9.36866
150049 11.4947
150058 14.8444
150067 20.1554
150078 31.0781
150090 39.3785
150102 33.6239
150113 23.4608
150125 16.5602
150137 12.5994
150148 10.2310
150160 8.75961
150172 7.77684
150183 7.10056
150206 6.24632
150230 5.74396
150253 5.42312
150300 5.04844
150346 4.84209
150393 4.71483
150486 4.56899
150579 4.48943
150672 4.44022
150858 4.38371
151044 4.35372
151230 4.33713
151602 4.32869
151974 4.35207
152161 4.38222
152347 4.43473
152533 4.52794
152626 4.60144
152719 4.70444
152812 4.85176
152905 5.05744
152952 5.17254
152998 5.23947
153021 5.19351
153045 4.98222
153056 4.73904
153068 4.33328
153079 3.78961
153085 3.78183
153088 4.15378
153091 5.17634
153093 6.83403
153096 9.45426
153100 17.2116
153105 21.3986
153109 20.3148
153113 18.5768
153116 17.0654
153120 15.9015
153123 15.0317
153131 13.9036
153138 13.2847
153152 12.8473
153167 12.9876
153195 14.2687
153224 16.5887
153267 21.3098
153310 22.8365
153353 17.0731
153396 10.9920
153430 8.10820
153465 6.46477
153499 5.54141
153533 5.06703
153568 4.95694
153602 5.33370
153619 5.85925
153636 6.81669
153653 8.57665
153671 11.7619
153690 17.9920
153710 23.4654
153730 21.1402
153750 15.6629
153767 12.1493
153784 9.86402
153801 8.37305
153817 7.36786
153851 6.12358
153885 5.39888
153919 4.90893
153953 4.53701
153970 4.38979
153987 4.33141
153996 4.42083
154004 4.78291
154008 5.22648
154013 6.04420
154017 7.62961
154021 10.7580
154030 22.9566
154035 21.7742
154039 16.8990
154042 14.2762
154045 12.3687
154050 9.89053
154056 8.43455
154062 7.54317
154067 6.93628
154073 6.51432
154084 5.95949
154095 5.60971
154107 5.37014
154129 5.06059
154152 4.86308
154174 4.72342
154219 4.53006
154265 4.39499
154310 4.28842
154400 4.10943
154490 3.92377
154580 3.65128
154625 3.41968
154648 3.24901
154670 3.01246
154693 2.65648
154704 2.40236
154716 2.06890
154727 1.60863
154738 0.975253
154749 0.213890
154755 0.117095
154758 0.422446
154761 1.29835
154763 2.85324
154765 5.49744
154770 13.1193
154772 16.1155
154775 17.3099
154780 16.1606
154784 14.0587
154788 12.3133
154793 10.9606
154797 9.96987
154806 8.61000
154814 7.76074
154823 7.17630
154832 6.76049
154849 6.20094
154866 5.84369
154884 5.59868
154918 5.28255
154953 5.08694
154987 4.95458
155057 4.78634
155195 4.61740
155334 4.53748
155611 4.48169
155888 4.50519
156166 4.61625
156304 4.72900
156443 4.91642
156581 5.25182
156651 5.52740
156720 5.93799
156789 6.58879
156859 7.70639
156928 9.82074
156962 11.5875
156997 14.0954
157049 19.0671
157100 21.4790
157152 16.8733
157203 11.3740
157250 8.36426
157297 6.69643
157343 5.74799
157390 5.18298
157483 4.60429
157577 4.35565
157670 4.24841
157764 4.21473
157951 4.28015
158137 4.51864
158231 4.74257
158324 5.09591
158418 5.68872
158511 6.77693
158558 7.68864
158605 9.05120
158651 11.1547
158698 14.4046
158754 19.7562
158810 22.2887
158866 17.2897
158922 11.3608
158960 8.79150
158998 7.15215
159073 5.44919
159149 4.79020
159224 4.65919
159300 4.92995
159375 5.68847
159451 7.25121
159526 10.2878
159613 16.7461
159657 20.9931
159700 25.6606
159724 29.4865
159736 32.6203
159748 37.3153
159764 46.9189
159780 53.5269
159796 46.8204
159813 36.2326
159828 29.1678
159843 24.6410
159859 21.5922
159874 19.4007
159894 17.3154
159913 15.7166
159952 13.3690
159991 11.6982
160030 10.4424
160108 8.68744
160186 7.52719
160264 6.69829
160342 6.05269
160420 5.45530
160440 5.27508
160459 5.03657
160469 4.86364
160479 4.60934
160488 4.18414
160493 4.04080
160496 4.59985
160497 5.77712
160498 9.23522
160499 15.7396
160500 23.1273
160501 23.5988
160502 19.1702
160503 15.8573
160504 13.4015
160506 10.6558
160507 9.11588
160509 8.25262
160513 7.26261
160516 6.73441
160523 6.18123
160530 5.89114
160544 5.56661
160558 5.37231
160586 5.11218
160613 4.91364
160669 4.56273
160725 4.19538
160780 3.73890
160808 3.44413
160836 3.07225
160864 2.58041
160891 1.90786
160919 1.08228
160926 0.932029
160933 0.906445
160940 1.15517
160947 1.95663
160953 3.40229
160959 5.84365
160970 13.2348
160976 16.1588
160982 17.3571
160993 16.3366
161007 13.8330
161020 11.8830
161034 10.5274
161047 9.57051
161061 8.87061
161075 8.34028
161102 7.59577
161129 7.09522
161156 6.73593
161210 6.25176
161265 5.93526
161319 5.70957
161428 5.40181
161645 5.04629
161863 4.83611
162080 4.69347
162297 4.59407
162406 4.56200
162515 4.55553
162569 4.57891
162624 4.66479
162651 4.78216
162664 4.89219
162678 5.07809
162692 5.42916
162698 5.73560
162705 6.22017
162712 7.05154
162719 8.64686
162722 10.0425
162726 12.2124
162729 15.7297
162732 21.2828
162736 30.9435
162740 36.9890
162744 29.9753
162748 20.0736
162752 13.4056
162756 9.93772
162761 8.05118
162765 6.96739
162769 6.27033
162773 5.81949
162782 5.27612
162790 4.98144
162799 4.80578
162816 4.61824
162850 4.47833
162884 4.43359
162952 4.42614
163020 4.48442
163088 4.65393
163122 4.83027
163156 5.13937
163190 5.72462
163224 6.95323
163241 8.10100
163258 9.97756
163275 13.1945
163292 18.8270
163311 28.8793
163330 36.7227
163349 31.6110
163368 22.2416
163385 16.3561
163402 12.7507
163419 10.5155
163436 9.07437
163470 7.39702
163504 6.50216
163539 5.96589
163573 5.61877
163641 5.20480
163709 4.97166
163777 4.82467
163914 4.65120
164050 4.55336
164187 4.49180
164460 4.42613
164733 4.41359
164869 4.42972
165006 4.46895
165142 4.54793
165211 4.61411
165279 4.71268
165347 4.87254
165381 4.99693
165415 5.18125
165449 5.49018
165467 5.74344
165484 6.13033
165501 6.79312
165518 8.08428
165526 9.27035
165535 11.1727
165543 14.4342
165552 20.1988
165561 30.2785
165570 38.1300
165579 33.2591
165588 24.2614
165597 18.2984
165606 14.8584
165615 12.8799
165624 11.7338
165642 10.7069
165659 10.5898
165677 11.0382
165695 11.9833
165730 15.6079
165760 20.3471
165790 22.3046
165820 17.2772
165850 11.6037
165877 8.55853
165904 6.89307
165931 5.95804
165959 5.41066
166013 4.87243
166067 4.67021
166176 4.64581
166284 4.87595
166393 5.34387
166501 6.18106
166610 7.69491
166718 10.4691
166839 15.7273
166960 20.4014
167081 18.5146
167202 13.9477
167279 11.6667
167357 10.0130
167395 9.38842
167415 9.13294
167434 8.93192
167453 8.83193
167463 8.86086
167472 9.00063
167482 9.37702
167487 9.73839
167492 10.3198
167497 11.3152
167501 13.0356
167506 16.2408
167511 22.4223
167516 32.0430
167520 39.3024
167525 34.0928
167529 24.9296
167532 20.7030
167535 17.7649
167540 14.1075
167545 12.0572
167551 10.8500
167556 10.0522
167562 9.51081
167573 8.81388
167583 8.37911
167594 8.07872
167616 7.67564
167638 7.39784
167660 7.18408
167703 6.85370
167747 6.59635
167790 6.38302
167877 6.04084
167964 5.77245
168051 5.55164
168138 5.37418
168160 5.35495
168182 5.40284
168192 5.52055
168203 5.87656
168209 6.33586
168214 7.34004
168217 8.32836
168220 10.0348
168222 13.1902
168225 19.4685
168228 29.1890
168230 36.4714
168233 31.4368
168235 22.2867
168237 16.8609
168239 13.5377
168241 11.4147
168244 10.0083
168248 8.34411
168252 7.44074
168260 6.53212
168269 6.10827
168286 5.71310
168303 5.52824
168336 5.34327
168370 5.24048
168438 5.10967
168505 5.01640
168641 4.87402
168776 4.76439
168911 4.68447
168978 4.66412
169046 4.67456
169114 4.76180
169147 4.87438
169181 5.09169
169215 5.53451
169232 5.92722
169249 6.53692
169266 7.52785
169283 9.22993
169299 12.3316
169316 18.1280
169333 27.8795
169350 35.7594
169367 31.1762
169384 22.2435
169398 16.8436
169412 13.3985
169427 11.1900
169441 9.73031
169469 7.98359
169498 7.02539
169527 6.43903
169555 6.05343
169612 5.58437
169669 5.31337
169726 5.13834
169840 4.92398
169954 4.79524
170068 4.70696
170297 4.58866
170525 4.50853
170753 4.44775
171209 4.35729
171666 4.29279
171894 4.27079
172122 4.26159
172350 4.28264
172465 4.32027
172579 4.39982
172693 4.57242
172750 4.73215
172807 4.98832
172864 5.42379
172921 6.21538
172978 7.78573
173035 11.0842
173083 15.8866
173130 19.6396
173178 17.2075
173225 12.7350
173271 9.79424
173316 8.04452
173361 6.98181
173407 6.30297
173498 5.52478
173588 5.11308
173679 4.86625
173770 4.70480
173952 4.50825
174133 4.39280
174315 4.31570
174678 4.21598
175042 4.15327
175224 4.13215
175405 4.11974
175587 4.12266
175678 4.13577
175768 4.16595
175859 4.23596
175905 4.30598
175950 4.43050
175996 4.67996
176018 4.90778
176041 5.28023
176064 5.94019
176086 7.24210
176098 8.40293
176109 10.1998
176120 13.1380
176132 17.9124
176146 27.2203
176160 34.3235
176174 29.4645
176188 20.8282
176198 16.3896
176208 13.3923
176218 11.3367
176228 9.92648
176248 8.17806
176268 7.20251
176288 6.61424
176308 6.24006
176348 5.83124
176387 5.65879
176427 5.61441
176507 5.76798
176586 6.20257
176666 6.99789
176746 8.36489
176825 10.6607
176928 15.3963
177030 19.3084
177133 17.1555
177235 12.8111
177330 9.95228
177425 8.17719
177472 7.55039
177520 7.04303
177544 6.83103
177567 6.67990
177579 6.67753
177591 6.86805
177597 7.19782
177603 8.00633
177606 8.87010
177609 10.3702
177612 13.3703
177615 19.2575
177617 28.6475
177620 35.8943
177623 31.6685
177625 23.0494
177628 16.7842
177631 13.2128
177634 11.1834
177637 9.94318
177643 8.57111
177649 7.86747
177661 7.15061
177673 6.79319
177697 6.40989
177721 6.18542
177769 5.88993
177816 5.68017
177912 5.37227
178007 5.14560
178198 4.82028
178389 4.58556
178580 4.39538
178676 4.31183
178771 4.24061
178867 4.20291
178914 4.21744
178962 4.28540
179010 4.46999
179058 4.93150
179082 5.38807
179105 6.13509
179129 7.39321
179153 9.50054
179187 14.5400
179220 19.6100
179254 18.6370
179287 14.6119
179311 12.2218
179336 10.5044
179360 9.28980
179384 8.41646
179433 7.28405
179481 6.60529
179530 6.16091
179578 5.85167
179676 5.45096
179773 5.20269
179870 5.03266
180064 4.80870
180258 4.65750
180453 4.53068
180550 4.46219
180647 4.37364
180695 4.31070
180744 4.22180
180793 4.11586
180805 4.13033
180817 4.27379
180823 4.49826
180829 4.99837
180835 6.23669
180838 7.45056
180841 9.41394
180850 19.2027
180855 18.2567
180859 14.3582
180862 12.3268
180865 10.7894
180870 8.79758
180876 7.65016
180881 6.94815
180892 6.14281
180904 5.71272
180915 5.45051
180926 5.27559
180948 5.05827
180970 4.92885
180992 4.84268
181037 4.73389
181126 4.61947
181214 4.55547
181303 4.51157
181392 4.47795
181570 4.42688
181925 4.35500
182280 4.30243
182635 4.26321
182813 4.25043
182990 4.24717
183168 4.26699
183257 4.29808
183346 4.36320
183434 4.50884
183479 4.65049
183523 4.89307
183568 5.34862
183590 5.73697
183612 6.32928
183634 7.28417
183656 8.93157
183679 11.9976
183701 17.9865
183720 26.7482
183740 32.9074
183760 27.5550
183779 19.0547
183796 14.1565
183813 11.1198
183829 9.21838
183846 7.98683
183879 6.55371
183912 5.79536
183945 5.34681
183978 5.06090
184044 4.72750
184111 4.54534
184177 4.43341
184309 4.30450
184442 4.23241
184574 4.18590
184839 4.13138
185104 4.11912
185237 4.14136
185369 4.20816
185502 4.38151
185568 4.55899
185634 4.86608
185700 5.43660
185767 6.60266
185800 7.66022
185833 9.33762
185866 12.0998
185899 16.7061
185940 25.5710
185980 32.4954
186021 27.9460
186061 19.6504
186087 15.6713
186114 12.8580
186166 9.46288
186219 7.63039
186271 6.51901
186324 5.74637
186376 5.10624
186429 4.42676
186442 4.26803
186455 4.25836
186462 4.47439
186468 5.16293
186472 5.93446
186475 7.30055
186478 9.76558
186482 14.0494
186486 24.2995
186490 34.9473
186494 33.8899
186499 26.3280
186501 22.2427
186504 19.0818
186509 14.9461
186514 12.4405
186519 10.8799
186524 9.80222
186529 9.04822
186540 8.05058
186550 7.41985
186560 6.99291
186581 6.44140
186601 6.09815
186622 5.86022
186663 5.54450
186704 5.33776
186745 5.18863
186827 4.98165
186909 4.84094
186991 4.73742
187155 4.59266
187319 4.49452
187483 4.42257
187811 4.32170
188467 4.19821
189124 4.11588
189780 4.04902
190436 3.98837
190764 3.96005
191092 3.93775
191256 3.93688
191338 3.94564
191420 3.97087
191503 4.03943
191544 4.11399
191585 4.25242
191626 4.53599
191646 4.79474
191667 5.21181
191687 5.92901
191708 7.26855
191728 10.0336
191738 12.5198
191749 16.2165
191764 24.8207
191780 31.6076
191796 27.4363
191812 19.5737
191822 15.6079
191833 12.8439
191844 10.9317
191854 9.58485
191876 7.89218
191897 6.92407
191919 6.32554
191940 5.93361
191983 5.47967
192026 5.25499
192068 5.15230
192154 5.16870
192239 5.44050
192325 6.08562
192411 7.51218
192453 8.81371
192496 10.7762
192558 14.9389
192620 17.7951
192682 15.0741
192744 10.9111
192795 8.60966
192845 7.16495
192896 6.24769
192946 5.64299
193047 4.92515
193149 4.52846
193250 4.27830
193351 4.10210
193553 3.84572
193755 3.61512
193958 3.30606
194059 3.05584
194109 2.87647
194160 2.63237
194210 2.27570
194236 2.02797
194261 1.70974
194286 1.28893
194312 0.737807
194337 0.137381
194349 0.0428167
194356 0.195704
194362 0.624870
194369 1.64313
194376 3.50541
194390 9.49915
194397 12.0509
194404 13.2863
194418 12.8547
194438 10.7023
194448 9.80777
194458 9.08062
194478 8.01258
194498 7.29075
194518 6.77461
194538 6.39224
194578 5.86957
194658 5.30219
194738 5.03292
194818 4.95646
194858 5.01038
194897 5.17555
194937 5.56189
194977 6.46421
194997 7.35258
195017 8.85183
195037 11.5062
195057 16.2838
195079 24.7231
195100 31.5291
195121 27.5313
195143 19.7745
195156 16.1626
195169 13.5639
195195 10.3265
195222 8.54790
195248 7.48470
195274 6.80028
195301 6.33260
195353 5.74871
195406 5.40572
195458 5.18456
195563 4.92281
195669 4.78012
195774 4.69940
195984 4.65098
196194 4.74130
196299 4.86412
196405 5.07975
196510 5.46412
196615 6.19104
196667 6.80309
196720 7.70830
196773 9.08402
196825 11.1641
196898 15.2864
196970 17.8839
197043 14.8874
197115 10.6523
197162 8.76170
197209 7.47151
197302 5.97425
197396 5.21196
197489 4.78291
197676 4.34704
197863 4.14398
198050 4.03869
198237 3.99030
198330 3.98510
198424 3.99891
198470 4.02328
198517 4.09377
198541 4.19221
198564 4.45712
198576 4.78767
198587 5.54024
198593 6.32035
198599 7.70906
198605 10.4462
198608 12.7934
198611 16.2006
198615 24.4676
198620 30.6266
198625 26.2880
198630 18.7119
198634 13.4060
198639 10.3795
198644 8.60923
198649 7.51142
198654 6.79111
198659 6.29530
198669 5.68243
198678 5.32655
198688 5.10523
198708 4.86109
198727 4.74228
198747 4.68446
198786 4.65838
198825 4.69756
198864 4.77973
198942 5.06026
199021 5.53225
199099 6.30189
199177 7.56917
199255 9.65092
199358 13.9749
199460 17.5044
199563 15.4667
199665 11.4677
199734 9.44195
199804 8.01293
199943 6.28546
200081 5.33164
200220 4.72073
200359 4.24964
200498 3.77170
200567 3.45459
200636 2.97252
200671 2.59386
200706 2.02875
200723 1.63881
200740 1.18005
200758 0.785555
200766 0.807741
200775 1.30734
200781 2.29023
200788 4.07713
200800 9.94723
200806 12.5118
200813 13.7768
200825 13.4903
200843 11.4963
200861 10.0133
200879 9.08462
200897 8.51393
200933 7.99568
200970 8.02853
201006 8.56936
201042 9.80493
201078 12.2344
201114 16.8307
201152 24.8781
201190 31.2097
201228 27.0149
201266 19.3496
201294 15.2293
201322 12.4634
201351 10.5937
201379 9.30466
201435 7.69922
201491 6.77872
201547 6.19520
201604 5.79780
201716 5.29563
201829 4.99094
201941 4.78508
202166 4.51870
202392 4.34680
202504 4.27957
202617 4.22193
202729 4.17906
202786 4.17166
202842 4.19018
202898 4.27803
202926 4.38550
202954 4.58967
202982 5.00105
203011 5.90361
203025 6.76824
203039 8.18244
203053 10.6275
203067 14.8657
203083 23.2147
203100 30.4374
203117 27.2530
203133 19.9813
203146 15.9314
203158 13.1378
203170 11.2255
203182 9.89716
203206 8.22241
203231 7.25845
203255 6.65165
203279 6.24731
203328 5.75522
203377 5.47914
203425 5.31264
203523 5.14404
203620 5.09037
203717 5.10330
203912 5.27376
204301 6.24960
204690 8.79333
205340 17.1665
205665 16.0915
205828 14.3828
205909 13.6718
205949 13.4975
205990 13.6827
206012 14.1399
206033 15.1842
206055 17.5607
206066 19.7576
206077 23.0941
206093 30.9558
206110 37.0916
206127 32.9859
206144 25.4726
206160 20.3444
206177 17.2717
206193 15.3757
206210 14.1295
206243 12.6116
206276 11.7076
206309 11.0841
206342 10.6086
206408 9.88725
206474 9.32144
206540 8.82853
206606 8.39330
206622 8.34113
206639 8.44864
206647 8.70455
206655 9.37986
206659 10.1168
206663 11.4016
206667 13.7968
206672 18.3808
206676 26.7261
206680 33.9856
206684 31.0992
206689 24.0753
206692 19.3372
206696 16.3603
206700 14.4242
206703 13.1184
206711 11.5305
206718 10.6317
206726 10.0579
206733 9.67086
206748 9.17246
206763 8.85747
206778 8.63630
206807 8.32837
206837 8.10813
206867 7.93294
206926 7.65112
207044 7.21864
207163 6.87251
207282 6.57729
207400 6.32535
207460 6.22601
207519 6.18648
207549 6.24286
207563 6.32555
207578 6.48960
207593 6.83170
207601 7.13689
207608 7.61650
207615 8.41194
207623 9.82518
207630 12.5457
207638 18.0776
207644 26.0310
207650 31.7059
207656 27.0966
207663 19.5617
207669 14.3657
207676 11.4472
207682 9.75706
207688 8.72764
207695 8.04084
207701 7.56752
207714 6.97621
207727 6.62521
207740 6.39903
207766 6.12400
207792 5.96219
207818 5.85712
207870 5.74988
207921 5.78790
207947 5.90573
207973 6.15524
207999 6.66071
208025 7.70198
208051 9.97157
208077 15.1376
208098 23.4733
208120 31.2896
208142 28.9269
208164 21.9716
208179 17.9497
208195 15.1281
208211 13.1461
208227 11.7444
208259 9.94018
208290 8.87161
208322 8.17602
208354 7.69435
208417 7.07060
208480 6.68268
208544 6.41542
208670 6.06088
208797 5.82594
208923 5.65136
209177 5.39435
209683 5.04258
210190 4.77551
210696 4.53177
210950 4.40590
211203 4.26976
211456 4.11558
211710 3.93744
211836 3.84858
211900 3.81653
211963 3.81356
212026 3.89176
212058 4.00518
212089 4.22783
212121 4.67569
212153 5.62609
212169 6.49941
212184 7.86363
212200 10.0603
212216 13.6143
212238 21.5511
212260 28.5833
212282 25.7188
212304 18.7999
212322 14.6446
212339 11.8520
212357 9.98167
212374 8.69849
212409 7.09381
212444 6.16848
212479 5.57245
212514 5.15814
212584 4.60682
212653 4.23517
212723 3.94396
212863 3.44177
213003 2.91290
213143 2.24194
213212 1.82105
213282 1.35418
213352 0.974200
213387 0.973287
213405 1.08908
213422 1.32946
213452 2.16792
213481 3.79083
213540 9.29215
213570 11.7532
213599 13.0339
213658 12.8591
213750 10.8397
213797 9.99877
213843 9.32332
213935 8.34006
214027 7.67708
214120 7.20560
214212 6.85448
214397 6.36656
214581 6.04209
214766 5.80877
215135 5.48992
215504 5.27435
215873 5.10755
216058 5.03039
216243 4.94679
216335 4.89582
216427 4.82895
216519 4.73683
216543 4.72661
216566 4.78851
216577 4.92953
216589 5.34454
216595 5.84510
216600 6.83867
216603 7.73198
216606 9.11039
216609 11.2908
216612 14.6052
216616 22.4420
216620 29.0965
216624 26.0977
216628 19.4038
216631 16.1052
216633 13.7737
216638 10.8126
216643 9.14235
216648 8.12432
216659 6.99227
216669 6.41464
216679 6.06904
216689 5.84641
216709 5.57723
216729 5.42139
216749 5.32051
216789 5.19728
216869 5.07287
216950 5.00563
217110 4.92515
217271 4.87119
217592 4.79078
217913 4.72569
218555 4.61279
219197 4.50508
219840 4.38531
220482 4.22063
220803 4.09188
220964 4.00054
221124 3.87484
221285 3.68392
221365 3.54270
221445 3.34551
221526 3.04718
221566 2.83140
221606 2.54158
221767 0.526559
221775 1.31914
221783 2.89432
221800 8.32648
221808 10.8335
221817 12.1863
221834 12.1527
221851 10.8685
221869 9.67910
221887 8.77304
221904 8.09684
221922 7.58401
221940 7.18587
221975 6.61433
222010 6.22421
222046 5.94313
222116 5.56337
222187 5.31770
222258 5.14507
222399 4.91766
222541 4.78567
222612 4.75460
222682 4.76222
222753 4.84799
222824 5.12798
222859 5.44089
222894 6.00526
222930 7.07175
222965 9.12151
223003 12.9671
223040 16.5435
223078 15.3368
223115 12.0557
223141 10.2918
223166 9.02803
223192 8.13277
223218 7.48787
223269 6.65080
223321 6.14936
223372 5.82172
223423 5.59413
223526 5.29981
223629 5.11771
223731 4.99305
223937 4.82966
224142 4.72327
224348 4.64552
224759 4.53556
225169 4.47011
225375 4.46281
225580 4.49428
225786 4.61891
225889 4.76057
225991 5.01519
226094 5.49390
226197 6.46259
226248 7.31945
226299 8.63186
226351 10.6991
226402 13.9541
226476 21.3372
226550 27.6916
226624 24.7694
226698 18.2445
226745 15.0349
226792 12.7086
226887 9.83060
226981 8.25107
227076 7.30552
227170 6.69342
227264 6.27318
227453 5.74207
227642 5.42504
227830 5.21579
228208 4.95510
228585 4.79537
228963 4.68323
229718 4.52446
230472 4.40444
230850 4.35318
231227 4.31174
231605 4.29703
231794 4.31583
231982 4.37600
232171 4.52520
232360 4.88586
232454 5.23811
232548 5.81503
232643 6.78520
232737 8.42091
232990 15.4885
233117 14.5075
233180 13.3205
233211 13.0791
233243 13.6039
233266 15.2166
233290 19.3157
233310 26.2102
233330 32.3320
233350 29.4802
233370 22.9486
233387 18.8508
233403 16.0910
233420 14.2078
233436 12.8741
233469 11.1338
233502 10.0465
233535 9.29290
233568 8.73189
233634 7.93693
233700 7.38913
233766 6.98303
233898 6.41514
234031 6.03396
234163 5.75945
234427 5.38574
234691 5.13268
234955 4.92766
235087 4.82351
235219 4.70143
235351 4.55736
235384 4.55254
235417 4.66984
235433 4.89038
235450 5.46418
235458 6.07667
235466 7.15538
235475 9.20411
235483 13.1074
235491 20.4095
235500 27.1261
235509 24.9490
235517 18.8798
235527 14.0409
235536 11.2244
235546 9.54848
235555 8.48802
235565 7.77612
235574 7.27376
235593 6.62625
235612 6.23012
235631 5.96834
235669 5.64404
235707 5.45228
235745 5.32519
235821 5.16509
235897 5.06563
235972 4.99585
236124 4.89987
236276 4.83293
236427 4.78095
236731 4.70040
237337 4.58130
237944 4.48157
238550 4.37821
239157 4.23994
239460 4.13158
239612 4.05408
239764 3.94659
239915 3.78175
239991 3.65890
240067 3.48593
240143 3.22219
240181 3.03001
240218 2.76893
240256 2.39603
240294 1.83222
240313 1.44043
240332 0.969994
240351 0.507265
240361 0.415832
240370 0.641809
240378 1.29273
240385 2.64175
240393 4.82806
240400 7.50293
240408 9.80946
240415 11.1116
240430 11.2315
240455 9.53102
240468 8.80685
240480 8.22637
240505 7.38906
240530 6.83020
240555 6.43629
240580 6.14525
240630 5.74490
240680 5.48186
240730 5.29433
240830 5.03870
240930 4.86115
241030 4.71222
241130 4.56590
241155 4.54715
241180 4.60462
241193 4.74378
241205 5.15190
241212 5.63380
241218 6.56706
241224 8.61181
241227 10.4592
241230 13.2749
241235 20.2230
241240 26.3739
241245 23.8518
241250 17.8045
241253 14.5746
241257 12.2917
241260 10.6943
241263 9.55672
241270 8.10242
241277 7.25751
241291 6.33404
241304 5.86848
241318 5.59119
241331 5.41123
241358 5.19073
241412 4.97227
241466 4.85982
241575 4.73457
241683 4.65801
241900 4.55349
242116 4.47125
242333 4.39083
242549 4.29475
242658 4.23166
242766 4.15138
242820 4.10907
242874 4.10042
242901 4.16313
242928 4.41848
242942 4.76805
242956 5.53217
242962 6.25779
242969 7.41296
242976 9.36941
242983 12.6156
242991 19.6125
243000 25.8613
243009 23.5464
243018 17.6349
243024 14.2661
243030 11.9141
243037 10.2884
243043 9.14181
243056 7.68950
243069 6.84211
243082 6.30236
243094 5.93452
243120 5.47250
243146 5.19728
243171 5.01507
243222 4.78608
243274 4.64251
243325 4.53743
243427 4.37107
243529 4.20242
243581 4.09609
243632 3.95526
243683 3.74583
243709 3.59242
243734 3.37959
243760 3.06219
243785 2.53902
243798 2.13236
243811 1.56349
243824 0.821165
243830 0.520598
243837 0.700194
243840 1.34151
243843 2.69492
243847 4.90534
243850 7.53338
243853 9.88115
243857 11.2162
243864 11.3792
243874 9.78359
243885 8.50472
243896 7.66655
243907 7.10523
243928 6.40496
243950 5.99670
243971 5.72855
243993 5.54053
244036 5.29197
244079 5.13460
244122 5.02523
244208 4.88149
244294 4.78923
244381 4.72365
244553 4.63371
244898 4.52470
245242 4.45199
245587 4.39346
245932 4.34395
246104 4.32781
246276 4.34022
246363 4.38680
246406 4.43968
246449 4.53587
246492 4.72267
246535 5.12243
246557 5.49941
246578 6.11359
246600 7.16316
246621 8.99044
246646 12.3467
246670 15.0377
246695 13.4362
246719 10.3498
246735 8.84293
246751 7.77425
246783 6.48500
246815 5.79653
246847 5.39237
246879 5.13513
246911 4.96050
246975 4.74271
247039 4.61410
247103 4.52938
247231 4.42295
247359 4.35593
247487 4.30715
247743 4.23607
247999 4.19046
248127 4.18396
248255 4.20353
248383 4.28419
248511 4.52862
248575 4.80129
248639 5.29927
248703 6.25015
248767 8.11067
248834 11.5457
248900 14.7462
248967 13.6921
249033 10.7335
249062 9.65081
249091 8.82126
249106 8.56055
249120 8.57023
249128 8.83400
249135 9.54444
249139 10.2508
249142 11.3532
249146 13.1292
249150 15.9748
249155 22.6877
249160 28.5207
249165 26.0524
249171 20.2234
249174 17.2239
249177 15.0841
249184 12.3345
249191 10.7763
249197 9.81874
249211 8.69358
249224 8.05176
249237 7.62506
249250 7.31198
249277 6.86591
249304 6.54835
249330 6.30447
249384 5.94265
249437 5.68080
249490 5.48057
249596 5.19020
249703 4.98565
249809 4.82939
250022 4.58864
250235 4.37393
250448 4.10408
250555 3.89406
250608 3.74473
250661 3.54025
250714 3.23647
250741 3.02074
250768 2.73423
250794 2.33808
250821 1.77004
250847 0.985192
250861 0.623111
250867 0.568162
250874 0.740263
250881 1.32886
250887 2.59492
250894 4.68853
250900 7.29007
250913 10.8982
250926 11.1212
250947 9.58736
250958 8.90578
250968 8.35726
250990 7.54853
251011 7.00563
251032 6.61867
251053 6.33299
251095 5.93793
251138 5.67853
251180 5.49476
251264 5.25005
251349 5.09253
251434 4.98092
251603 4.82935
251941 4.64983
252280 4.53243
252618 4.43767
252956 4.35947
253126 4.34299
253210 4.35495
253295 4.40020
253379 4.51963
253464 4.82251
253506 5.12866
253549 5.64569
253591 6.54507
253633 8.12023
253687 11.5412
253740 14.8698
253794 14.0515
253847 11.2527
253887 9.57662
253927 8.39957
253967 7.57912
254007 6.99844
254087 6.25473
254167 5.81425
254247 5.52788
254327 5.32844
254488 5.06650
254648 4.89421
254808 4.75555
254968 4.60861
255048 4.56563
255068 4.62216
255088 4.85034
255098 5.16217
255108 5.85913
255113 6.52816
255118 7.63251
255123 9.52721
255128 12.8280
255134 19.3853
255140 25.1907
255146 22.8637
255152 17.1825
255157 13.6317
255162 11.3311
255167 9.78210
255172 8.75010
255182 7.47558
255192 6.75807
255202 6.31159
255211 6.01228
255231 5.64264
255251 5.42655
255271 5.28593
255310 5.11464
255350 5.01305
255390 4.94506
255469 4.85763
255627 4.76086
255785 4.70313
255944 4.66182
256102 4.62943
256418 4.57966
257052 4.51010
257685 4.45953
258951 4.38262
260218 4.31874
261484 4.25666
262117 4.22343
262750 4.18669
263384 4.14414
264017 4.09382
264333 4.06906
264492 4.06130
264650 4.06443
264808 4.09831
264887 4.14362
264967 4.23119
265046 4.40623
265125 4.78003
265164 5.12418
265204 5.66781
265244 6.55540
265283 8.00686
265337 11.1761
265390 13.9761
265444 12.8190
265497 10.0521
265541 8.34155
265585 7.21114
265630 6.46433
265674 5.95528
265762 5.32589
265850 4.96243
265939 4.73285
265983 4.65505
266027 4.60922
266071 4.62603
266093 4.68661
266115 4.82293
266137 5.11935
266159 5.79384
266171 6.44695
266182 7.51437
266193 9.33722
266204 12.4937
266217 18.7687
266230 24.1675
266243 21.7518
266257 16.2719
266270 12.2901
266284 9.92299
266297 8.48994
266311 7.57352
266324 6.95452
266338 6.51615
266365 5.94726
266392 5.60056
266419 5.36974
266473 5.08337
266527 4.91246
266581 4.79793
266689 4.65142
266797 4.55898
266905 4.49343
267120 4.40313
267336 4.34056
267552 4.29216
267984 4.21606
268848 4.08623
269064 4.05477
269280 4.03865
269388 4.05990
269442 4.09448
269496 4.16600
269550 4.31603
269604 4.65226
269631 4.97290
269658 5.49684
269685 6.38237
269712 7.88921
269746 11.0334
269780 13.8657
269814 12.8001
269848 10.0954
269875 8.48731
269901 7.39819
269927 6.66184
269954 6.15113
270007 5.51378
270059 5.14776
270112 4.91566
270165 4.75802
270271 4.55905
270377 4.43898
270482 4.35791
270694 4.25237
270905 4.18241
271116 4.12866
271539 4.04083
271962 3.95870
272384 3.87041
272596 3.82665
272701 3.81081
272807 3.81004
272913 3.85373
272966 3.91835
273018 4.04933
273071 4.32457
273124 4.95016
273151 5.56029
273177 6.58322
273203 8.37473
273230 11.5752
273260 17.6946
273290 23.0213
273320 20.7080
273350 15.3643
273385 11.0904
273420 8.73298
273455 7.37771
273490 6.54556
273525 5.99679
273560 5.61714
273630 5.13579
273700 4.85172
273770 4.67173
273909 4.48114
274049 4.44687
274189 4.61613
274259 4.85165
274328 5.29544
274398 6.14118
274468 7.75697
274544 10.8420
274620 13.6879
274696 12.6833
274772 10.0155
274838 8.26288
274904 7.11854
274970 6.36741
275037 5.85473
275169 5.21611
275301 4.83716
275433 4.58017
275566 4.38593
275830 4.07660
276095 3.77374
276227 3.59080
276359 3.35850
276491 3.03261
276557 2.80852
276624 2.51714
276690 2.12234
276756 1.57117
276822 0.830567
276855 0.482299
276872 0.403546
276888 0.488022
276906 0.931525
276915 1.36492
276924 1.98043
276942 3.79665
276960 6.12865
276996 9.53616
277032 9.91692
277121 8.05123
277166 7.34822
277211 6.82564
277256 6.42769
277300 6.12954
277323 6.03732
277345 6.06704
277356 6.22466
277367 6.68038
277373 7.18720
277378 8.11871
277384 9.93307
277390 13.5068
277395 19.5326
277400 24.6114
277405 22.2436
277411 17.0182
277415 13.9231
277419 11.8774
277423 10.4905
277427 9.52576
277435 8.30728
277443 7.61199
277459 6.85899
277475 6.46613
277507 6.05366
277539 5.82647
277604 5.55700
277668 5.38504
277732 5.25697
277797 5.15460
277926 4.99622
278054 4.87529
278183 4.77729
278441 4.62087
278698 4.49183
278956 4.37653
279084 4.33271
279149 4.32560
279213 4.34675
279277 4.44092
279310 4.55189
279342 4.75450
279374 5.13852
279406 5.91494
279438 7.62982
279455 9.23145
279471 11.6958
279495 17.7303
279520 23.1468
279545 21.1104
279570 15.9484
279589 12.8691
279608 10.7858
279627 9.37669
279646 8.39919
279685 7.18124
279723 6.48087
279762 6.03745
279800 5.73750
279877 5.36166
279954 5.13763
280031 4.98949
280184 4.80387
280338 4.68992
280492 4.61064
280799 4.50274
281106 4.42805
281414 4.36997
282028 4.27902
282643 4.20575
283258 4.14413
283565 4.11886
283873 4.10089
284026 4.09836
284180 4.11343
284257 4.14851
284295 4.18928
284334 4.26887
284372 4.44001
284391 4.60093
284410 4.86472
284430 5.32322
284449 6.18014
284468 7.92238
284487 11.6934
284504 17.6033
284520 22.8686
284536 20.8022
284553 15.7206
284571 11.7036
284590 9.45408
284609 8.16139
284627 7.37148
284646 6.86169
284664 6.51889
284702 6.11624
284739 5.92155
284776 5.84312
284850 5.89999
284925 6.17702
284999 6.69204
285074 7.53137
285148 8.83112
285259 11.7198
285370 13.7892
285481 12.0008
285592 9.11914
285663 7.78570
285734 6.84966
285876 5.72594
286018 5.12580
286160 4.77161
286444 4.38567
286728 4.18402
287012 4.06516
287154 4.02744
287296 4.00551
287439 4.00869
287510 4.02907
287581 4.07745
287652 4.19065
287687 4.30210
287723 4.49256
287758 4.84379
287794 5.56229
287811 6.21657
287829 7.24759
287847 8.95079
287865 11.7672
287887 17.6053
287910 22.6176
287933 20.3642
287956 15.2892
287975 12.1232
287994 10.0833
288013 8.77197
288033 7.90342
288071 6.88897
288110 6.36493
288149 6.08132
288187 5.93246
288264 5.86350
288419 6.24055
288573 7.15202
288705 8.39619
288837 10.0762
288902 11.0424
288968 12.0918
289001 12.7000
289034 13.4756
289067 14.6992
289100 17.1662
289120 19.9876
289145 26.1479
289170 32.2211
289195 31.0207
289221 26.1840
289246 22.3832
289271 19.9666
289297 18.3837
289322 17.2712
289373 15.7540
289424 14.6793
289525 13.0575
289627 11.7856
289765 10.4211
289903 9.37964
290180 7.95956
290456 7.08026
290732 6.50100
291285 5.80129
291837 5.39847
292390 5.13480
292942 4.94510
294048 4.67574
295153 4.46810
295705 4.36899
296258 4.26526
296810 4.15189
297363 4.03440
297639 3.99560
297916 4.03685
298054 4.15104
298192 4.43185
298330 5.10374
298468 6.71394
298720 13.0042
298846 12.9473
298909 12.3360
298941 12.3893
298972 13.1988
298990 14.3964
299009 16.5507
299034 21.8393
299060 26.7671
299086 24.7831
299112 19.7360
299143 15.3571
299173 12.8276
299204 11.2776
299235 10.2510
299297 8.96126
299359 8.16825
299421 7.61943
299483 7.21142
299607 6.63792
299731 6.25005
299854 5.96863
300102 5.58572
300350 5.33556
300597 5.15755
301092 4.91599
301587 4.75284
302083 4.62853
303073 4.43156
304063 4.25291
304558 4.15848
305053 4.05586
305549 3.94507
305796 3.89099
306044 3.84786
306291 3.84094
306539 3.94718
306663 4.10902
306787 4.43322
306910 5.07434
307034 6.32629
307187 9.27546
307340 12.6383
307493 12.5772
307646 10.3987
307754 9.02735
307862 7.98854
307969 7.21547
308077 6.63072
308293 5.80201
308508 5.20885
308724 4.69069
308939 4.10205
309047 3.70287
309155 3.13726
309370 1.36435
309390 1.65887
309410 2.47168
309430 3.96836
309450 5.96751
309490 9.06036
309530 9.56456
309562 9.15371
309595 8.62584
309627 8.14295
309659 7.73641
309724 7.11683
309788 6.68110
309917 6.11384
310046 5.76329
310176 5.54519
310240 5.48905
310305 5.49207
310369 5.61248
310434 6.01893
310466 6.47431
310498 7.29395
310531 8.83886
310563 11.7945
310596 17.1703
310630 21.9613
310664 20.0526
310697 15.3776
310732 11.9399
310766 9.87924
310800 8.61663
310834 7.79868
310869 7.23691
310903 6.83410
310971 6.29765
311040 5.95624
311108 5.71791
311245 5.39663
311382 5.17654
311519 5.00345
311792 4.70972
312066 4.40652
312340 3.98860
312477 3.66376
312545 3.44108
312613 3.15110
312682 2.75538
312750 2.19226
312784 1.82295
312819 1.39461
312853 0.966900
312870 0.821524
312887 0.815236
312905 1.12002
312924 1.97702
312942 3.58054
312960 5.72754
312997 9.10610
313033 9.71047
313068 9.19871
313104 8.55593
313139 8.00223
313174 7.55748
313245 6.91652
313315 6.48808
313457 5.95855
313598 5.65819
313739 5.51315
313809 5.51401
313880 5.60115
313951 5.85219
314021 6.46071
314056 7.03979
314092 7.96381
314127 9.46554
314162 11.8959
314211 17.2810
314260 21.8994
314309 19.6506
314358 14.7246
314403 11.4294
314447 9.31590
314492 7.91254
314536 6.91577
314581 6.15497
314626 5.60350
314648 5.48225
314670 5.65508
314693 6.63864
314704 7.86317
314715 10.0391
314733 16.5684
314750 24.7526
314768 25.6864
314785 21.3384
314799 18.1372
314812 15.7409
314825 13.9803
314839 12.6920
314866 10.9599
314893 9.87979
314919 9.14445
314946 8.61616
315000 7.90229
315000 6.32510
500000 6.37736
700000 6.39805
800000 6.38853
900000 6.36528
1.00000E+06 6.32871
1.14081E+06 6.25662
1.14081E+06 6.25661
1.25000E+06 6.18606
1.26846E+06 6.16961
1.50000E+06 5.98455
1.75000E+06 5.74539
2.00000E+06 5.48927
2.11871E+06 5.36684
2.14663E+06 5.33824
2.14664E+06 5.33815
2.14673E+06 5.33814
2.14674E+06 5.33812
2.20984E+06 5.27400
2.20985E+06 5.27399
2.22245E+06 5.26128
2.23958E+06 5.24404
2.23959E+06 5.24403
2.34383E+06 5.14070
2.38566E+06 5.10010
2.38567E+06 5.10009
2.44615E+06 5.04240
2.44615E+06 5.04239
2.46682E+06 5.02298
2.58891E+06 4.91156
2.62359E+06 4.88101
2.63548E+06 4.87065
2.63548E+06 4.87065
2.70847E+06 4.80842
2.70847E+06 4.80842
2.71059E+06 4.80665
2.72490E+06 4.79473
2.72490E+06 4.79472
2.85939E+06 4.68738
2.89851E+06 4.65774
2.90173E+06 4.65532
2.90173E+06 4.65531
2.92361E+06 4.63908
3.00000E+06 4.58416
3.46410E+06 4.33015
4.00000E+06 4.09041
4.12500E+06 4.05982
4.25000E+06 4.03085
4.37500E+06 4.00338
4.50000E+06 3.97730
4.62500E+06 3.95249
4.75000E+06 3.92888
4.87500E+06 3.90636
5.00000E+06 3.88488
5.12500E+06 3.88206
5.25000E+06 3.87934
5.37500E+06 3.87672
5.50000E+06 3.87419
5.62500E+06 3.87174
5.75000E+06 3.86937
5.87500E+06 3.86707
6.00000E+06 3.86484
6.10232E+06 3.87668
6.20465E+06 3.88855
6.30697E+06 3.90047
6.40929E+06 3.91242
6.48074E+06 3.92047
6.60801E+06 3.93450
6.73528E+06 3.94858
6.86764E+06 3.96272
7.00000E+06 3.97690
7.11881E+06 4.00021
7.23762E+06 4.02358
7.36047E+06 4.04717
7.48331E+06 4.07080
7.61033E+06 4.09468
7.73734E+06 4.11859
7.86867E+06 4.14275
8.00000E+06 4.16693
8.14107E+06 4.19658
8.28213E+06 4.22704
8.42320E+06 4.25831
8.56426E+06 4.29035
8.61873E+06 4.30169
8.67320E+06 4.31308
8.72766E+06 4.32452
8.78213E+06 4.33602
8.83660E+06 4.34757
8.89107E+06 4.35917
8.94553E+06 4.37081
9.00000E+06 4.38251
9.06005E+06 4.39251
9.12011E+06 4.40278
9.18016E+06 4.41332
9.24021E+06 4.42413
9.30187E+06 4.43541
9.36352E+06 4.44697
9.42518E+06 4.45880
9.48683E+06 4.47089
9.53387E+06 4.48021
9.58091E+06 4.48969
9.62795E+06 4.49932
9.67500E+06 4.50909
9.72204E+06 4.51901
9.76908E+06 4.52907
9.81612E+06 4.53927
9.86316E+06 4.54962
9.89737E+06 4.55592
9.93158E+06 4.56230
9.96579E+06 4.56876
1.00000E+07 4.57530
1.00610E+07 4.58020
1.01220E+07 4.58521
1.01830E+07 4.59035
1.02441E+07 4.59560
1.03051E+07 4.60097
1.03661E+07 4.60646
1.04271E+07 4.61205
1.04881E+07 4.61776
1.05521E+07 4.62393
1.06161E+07 4.63022
1.06801E+07 4.63662
1.07441E+07 4.64314
1.08080E+07 4.64978
1.08720E+07 4.65653
1.09360E+07 4.66340
1.10000E+07 4.67037
1.10380E+07 4.67355
1.10760E+07 4.67676
1.11140E+07 4.68000
1.11521E+07 4.68327
1.11901E+07 4.68657
1.12281E+07 4.68991
1.12661E+07 4.69327
1.13041E+07 4.69667
1.13421E+07 4.70010
1.13801E+07 4.70355
1.14181E+07 4.70704
1.14562E+07 4.71056
1.14942E+07 4.71411
1.15322E+07 4.71769
1.15702E+07 4.72129
1.16082E+07 4.72493
1.17062E+07 4.73310
1.18041E+07 4.74148
1.19021E+07 4.75009
1.20000E+07 4.75890
1.20961E+07 4.75254
1.21921E+07 4.74632
1.22915E+07 4.73977
1.23909E+07 4.73332
1.24902E+07 4.72697
1.25896E+07 4.72071
1.26914E+07 4.71440
1.27932E+07 4.70818
1.28966E+07 4.70196
1.30000E+07 4.69585
1.30608E+07 4.69217
1.31216E+07 4.68852
1.31823E+07 4.68489
1.32431E+07 4.68128
1.33050E+07 4.67763
1.33669E+07 4.67400
1.34288E+07 4.67040
1.34907E+07 4.66682
1.35538E+07 4.66319
1.36169E+07 4.65959
1.36799E+07 4.65602
1.37430E+07 4.65247
1.38073E+07 4.64887
1.38715E+07 4.64529
1.39358E+07 4.64174
1.40000E+07 4.63822
1.40579E+07 4.62993
1.41158E+07 4.62170
1.41737E+07 4.61352
1.42316E+07 4.60539
1.42895E+07 4.59732
1.43474E+07 4.58930
1.44053E+07 4.58133
1.44632E+07 4.57341
1.45000E+07 4.56839
1.45319E+07 4.56405
1.45638E+07 4.55973
1.45638E+07 4.55972
1.46183E+07 4.55236
1.46729E+07 4.54503
1.47274E+07 4.53775
1.47819E+07 4.53050
1.48364E+07 4.52330
1.48910E+07 4.51614
1.49455E+07 4.50901
1.50000E+07 4.50193
1.50615E+07 4.49160
1.51230E+07 4.48134
1.51845E+07 4.47116
1.52460E+07 4.46105
1.53074E+07 4.45101
1.53689E+07 4.44104
1.54304E+07 4.43115
1.54919E+07 4.42132
1.55554E+07 4.41115
1.56189E+07 4.40105
1.56824E+07 4.39103
1.57460E+07 4.38108
1.58095E+07 4.37121
1.58730E+07 4.36141
1.59365E+07 4.35169
1.60000E+07 4.34204
1.60625E+07 4.33031
1.61250E+07 4.31868
1.61875E+07 4.30716
1.62500E+07 4.29574
1.63125E+07 4.28441
1.63750E+07 4.27319
1.64375E+07 4.26206
1.65000E+07 4.25103
1.65625E+07 4.24010
1.66250E+07 4.22926
1.66875E+07 4.21852
1.67500E+07 4.20787
1.68125E+07 4.19732
1.68750E+07 4.18687
1.69375E+07 4.17651
1.70000E+07 4.16624
1.70385E+07 4.15978
1.70771E+07 4.15335
1.71156E+07 4.14696
1.71541E+07 4.14060
1.71926E+07 4.13428
1.72312E+07 4.12799
1.72697E+07 4.12174
1.73082E+07 4.11552
1.73990E+07 4.10083
1.74898E+07 4.08634
1.75783E+07 4.07222
1.76668E+07 4.05828
1.77552E+07 4.04451
1.78437E+07 4.03092
1.80000E+07 4.00702
1.82500E+07 3.96300
1.85000E+07 3.92061
1.87500E+07 3.87981
1.90000E+07 3.84059
1.95000E+07 3.76197
2.00000E+07 3.68909