Pb-207(n,tot) ENDF/B-VII.1
Energy(eV) XS(b)
1.00000E-05 46.5533
1.25000E-05 42.7732
1.50000E-05 39.9828
2.00000E-05 36.0660
2.75000E-05 32.3392
3.50000E-05 29.8865
4.25000E-05 28.1158
5.00000E-05 26.7603
6.25000E-05 25.0698
7.50000E-05 23.8219
0.000100000 22.0702
0.000125000 20.8748
0.000150000 19.9924
0.000200000 18.7538
0.000275000 17.5753
0.000350000 16.7997
0.000425000 16.2398
0.000500000 15.8111
0.000625000 15.2765
0.000750000 14.8819
0.00100000 14.3280
0.00125000 13.9500
0.00150000 13.6709
0.00200000 13.2793
0.00275000 12.9066
0.00350000 12.6613
0.00425000 12.4842
0.00500000 12.3487
0.00625000 12.1796
0.00750000 12.0549
0.0100000 11.8797
0.0125000 11.7601
0.0150000 11.6719
0.0200000 11.5480
0.0253000 11.4593
0.0314750 11.3856
0.0376500 11.3309
0.0500000 11.2538
0.0625000 11.2003
0.0750000 11.1609
0.100000 11.1055
0.125000 11.0677
0.150000 11.0398
0.200000 11.0006
0.275000 10.9633
0.350000 10.9388
0.500000 10.9075
0.750000 10.8781
1.00000 10.8606
1.50000 10.8398
2.00000 10.8274
2.75000 10.8156
3.50000 10.8078
5.00000 10.7978
7.50000 10.7885
10.0000 10.7828
15.0000 10.7761
20.0000 10.7720
27.5000 10.7680
35.0000 10.7652
50.0000 10.7616
75.0000 10.7577
100.000 10.7550
150.000 10.7511
200.000 10.7480
275.000 10.7440
350.000 10.7405
500.000 10.7339
750.000 10.7237
1000.00 10.7138
1500.00 10.6945
2000.00 10.6753
2531.44 10.6551
2797.15 10.6450
2930.01 10.6403
2996.44 10.6393
3013.05 10.6402
3029.66 10.6438
3037.96 10.6495
3046.26 10.6659
3050.42 10.6890
3052.49 10.7120
3054.57 10.7541
3056.64 10.8439
3057.68 10.9329
3058.72 11.0940
3059.24 11.2288
3059.76 11.4332
3060.28 11.7647
3060.80 12.3558
3061.06 12.8437
3061.31 13.5690
3061.57 14.7252
3061.83 16.7153
3062.09 20.6167
3062.22 24.1350
3062.35 29.8124
3062.48 39.9979
3062.55 48.3376
3062.61 60.4097
3062.68 79.3290
3062.74 110.314
3062.81 164.112
3062.87 258.241
3062.94 406.787
3063.00 505.879
3063.07 406.874
3063.13 258.273
3063.19 168.545
3063.25 116.695
3063.31 85.5005
3063.37 65.8258
3063.49 43.8111
3063.60 32.6129
3063.72 26.1708
3063.84 22.2052
3064.08 17.7486
3064.31 15.4331
3064.55 14.0905
3064.79 13.2377
3065.02 12.6671
3065.50 11.9704
3065.97 11.5786
3066.44 11.3367
3066.91 11.1773
3067.86 10.9861
3068.81 10.8805
3070.70 10.7740
3072.59 10.7240
3074.48 10.6966
3078.26 10.6692
3085.83 10.6493
3093.39 10.6421
3108.53 10.6367
3123.66 10.6344
3184.19 10.6305
3305.24 10.6254
3547.35 10.6160
4031.57 10.5973
5000.00 10.5596
7500.00 10.4599
8750.00 10.4084
9375.00 10.3822
9687.50 10.3691
10000.0 10.3569
10046.2 10.3558
10092.3 10.3562
10115.4 10.3584
10138.5 10.3661
10150.0 10.3774
10161.6 10.4094
10167.4 10.4535
10170.2 10.4971
10173.1 10.5756
10176.0 10.7412
10177.5 10.9024
10178.9 11.1893
10179.6 11.4294
10180.3 11.7838
10181.1 12.3471
10181.8 13.3223
10182.5 15.2333
10182.9 16.9619
10183.2 19.7897
10183.6 24.8670
10183.8 29.0545
10183.9 35.2779
10184.1 45.0171
10184.3 61.2217
10184.5 90.0071
10184.7 142.992
10184.8 222.018
10185.0 274.930
10185.2 222.754
10185.3 143.450
10185.5 99.3587
10185.6 73.5044
10185.7 56.7830
10185.9 45.6321
10186.1 32.0816
10186.4 25.1521
10186.7 20.9162
10186.9 18.3325
10187.5 15.3100
10188.0 13.7203
10188.5 12.7849
10189.1 12.1892
10189.6 11.7869
10190.6 11.2947
10191.7 11.0166
10193.8 10.7308
10195.9 10.5946
10198.1 10.5193
10202.3 10.4435
10206.5 10.4080
10210.8 10.3885
10219.3 10.3691
10236.2 10.3549
10253.2 10.3496
10287.1 10.3450
10321.0 10.3425
10456.7 10.3358
10728.1 10.3240
11270.8 10.3004
11813.5 10.2772
12084.9 10.2672
12152.7 10.2659
12220.5 10.2669
12254.5 10.2703
12288.4 10.2810
12305.3 10.2957
12313.8 10.3100
12322.3 10.3353
12330.8 10.3873
12335.0 10.4373
12339.3 10.5254
12343.5 10.7048
12345.6 10.8754
12347.7 11.1716
12348.8 11.4097
12349.9 11.7577
12350.9 12.2955
12352.0 13.1914
12353.0 14.8488
12353.6 16.2609
12354.1 18.4322
12354.6 21.9971
12355.2 28.3603
12355.7 40.9165
12355.9 51.5284
12356.2 66.9229
12356.6 100.537
12357.0 123.060
12357.4 100.600
12357.8 66.6067
12358.1 50.5592
12358.3 39.7008
12358.9 27.4805
12359.4 21.2335
12359.9 17.8311
12360.5 15.7351
12361.0 14.4071
12362.1 12.8458
12363.2 12.0128
12364.2 11.5190
12365.3 11.2033
12366.4 10.9898
12368.5 10.7288
12370.6 10.5819
12374.9 10.4321
12379.2 10.3619
12383.5 10.3238
12392.0 10.2863
12409.2 10.2605
12426.3 10.2518
12460.5 10.2457
12494.7 10.2431
12631.7 10.2369
12905.5 10.2252
13453.2 10.2008
14548.7 10.1529
15644.1 10.1240
16191.8 10.1936
16328.7 10.2825
16465.7 10.5332
16534.1 10.8646
16568.4 11.1787
16602.6 11.7183
16636.8 12.7615
16653.9 13.6916
16671.0 15.1881
16688.2 17.8134
16705.3 22.9918
16713.8 27.6434
16722.4 35.0559
16731.0 47.4616
16739.5 68.6159
16748.8 103.665
16758.0 127.483
16767.3 104.459
16776.5 69.1110
16782.8 52.2422
16789.1 40.8513
16795.4 33.1790
16801.7 27.9079
16814.3 21.4636
16826.9 17.8985
16839.5 15.7466
16852.1 14.3593
16877.2 12.7456
16902.4 11.8823
16927.6 11.3689
16978.0 10.8152
17028.3 10.5386
17078.7 10.3807
17179.4 10.2152
17380.9 10.0857
17582.4 10.0321
18388.3 9.94473
20000.0 9.83513
24691.0 9.47328
27036.4 9.23361
28209.2 9.09389
28795.6 9.03167
28942.1 9.02819
29088.7 9.05428
29162.0 9.10664
29198.7 9.16242
29235.3 9.26550
29272.0 9.48204
29290.3 9.69038
29308.6 10.0529
29327.0 10.7676
29336.1 11.4172
29345.3 12.4857
29354.4 14.4206
29359.0 16.0309
29363.6 18.4471
29368.2 22.2794
29372.8 28.7833
29377.3 40.6872
29381.9 63.5635
29386.0 96.5051
29390.0 119.515
29394.1 98.2791
29398.1 64.8409
29402.2 43.1504
29406.2 31.0684
29410.3 24.1298
29414.3 19.9041
29418.4 17.1797
29422.4 15.3353
29430.5 13.0865
29438.6 11.8269
29446.7 11.0563
29462.9 10.2028
29479.1 9.76651
29495.3 9.51439
29527.7 9.24854
29560.1 9.11761
29592.6 9.04258
29657.4 8.96170
29722.2 8.91839
29787.0 8.89005
29916.6 8.85122
30435.2 8.74572
31472.2 8.54024
33546.4 8.00410
34583.4 7.63594
35620.5 7.16226
36139.0 6.87264
36657.5 6.54396
36916.8 6.37197
37176.1 6.22338
37305.7 6.19471
37370.5 6.21713
37435.3 6.29814
37500.2 6.51560
37532.6 6.73950
37565.0 7.13095
37597.4 7.87630
37613.6 8.51775
37629.8 9.50418
37646.0 11.1176
37662.2 13.9647
37678.4 19.4770
37686.5 24.1617
37694.6 30.9290
37707.3 46.1418
37720.0 57.0092
37732.7 47.3159
37745.4 31.6576
37756.7 22.3335
37768.1 16.7851
37779.4 13.4359
37790.8 11.3198
37813.4 8.94592
37836.1 7.73122
37858.8 7.02863
37881.5 6.58383
37926.8 6.06443
37972.2 5.77207
38017.5 5.58044
38108.2 5.32717
38289.6 4.99205
38471.1 4.71266
38833.9 4.16355
39196.7 3.59815
39559.5 3.08406
39922.4 2.88840
40103.8 3.13860
40285.2 3.90941
40466.6 5.64938
40648.0 9.14436
40801.0 14.3137
40954.0 22.2042
41260.0 42.5375
41413.0 48.8743
41566.0 50.0943
41872.0 43.9081
42126.0 37.5062
42380.0 32.4041
42634.0 28.6068
42888.0 25.7807
43396.0 21.9751
43904.0 19.5912
44412.0 17.9811
44920.0 16.8284
45936.0 15.2959
46952.0 14.3260
47968.0 13.6567
50000.0 12.7896
52294.7 12.1907
54589.3 11.7900
59178.6 11.2726
63767.9 10.9384
66062.5 10.8084
67209.8 10.7507
67783.5 10.7253
68070.3 10.7182
68142.0 10.7203
68213.7 10.7308
68249.6 10.7466
68285.5 10.7899
68303.4 10.8465
68312.3 10.9003
68321.3 10.9937
68330.3 11.1792
68334.8 11.3500
68339.2 11.6365
68343.7 12.1734
68346.0 12.6380
68348.2 13.3648
68350.4 14.5899
68352.7 16.8712
68353.8 18.8031
68354.9 21.7117
68356.0 26.2424
68357.2 33.3845
68360.0 57.8311
68361.4 49.6801
68362.9 35.1676
68364.0 27.0834
68365.1 22.0446
68366.3 18.8427
68367.4 16.7773
68369.7 14.3880
68371.9 13.1482
68374.2 12.4272
68376.5 11.9763
68381.0 11.4694
68385.5 11.2067
68390.1 11.0548
68399.1 10.8955
68417.3 10.7761
68435.4 10.7335
68471.7 10.7030
68507.9 10.6922
68653.0 10.6786
68943.1 10.6653
69523.4 10.6407
70683.9 10.5940
71844.4 10.5573
72424.7 10.5629
72714.8 10.6322
72787.4 10.6981
72859.9 10.8621
72896.2 11.0580
72932.4 11.5099
72950.6 12.0031
72968.7 13.0013
72977.8 13.9314
72986.8 15.4806
72995.9 18.2679
73005.0 23.5487
73021.0 37.4045
73029.0 32.8084
73037.0 24.3385
73045.8 18.3885
73054.6 15.2948
73063.4 13.6262
73072.2 12.6589
73089.8 11.6655
73107.4 11.2038
73142.5 10.8103
73177.7 10.6557
73248.1 10.5402
73318.4 10.4998
73599.8 10.4602
74162.5 10.4389
75287.9 10.4024
77538.8 10.3306
79789.6 10.2690
80915.1 10.2567
81196.4 10.2652
81477.8 10.2959
81618.5 10.3370
81688.8 10.3746
81759.2 10.4368
81829.5 10.5501
81864.7 10.6453
81899.8 10.7901
81935.0 11.0256
81970.2 11.4422
82005.3 12.2626
82022.9 12.9778
82040.5 14.0413
82091.0 18.1461
82103.6 17.8821
82116.3 16.8335
82141.5 14.3155
82167.3 12.6291
82193.1 11.7134
82218.9 11.2046
82244.7 10.9038
82296.3 10.5906
82347.9 10.4443
82399.5 10.3672
82451.1 10.3239
82554.3 10.2879
82657.5 10.2947
82709.1 10.3173
82760.7 10.3643
82812.3 10.4653
82838.1 10.5616
82863.9 10.7264
82889.7 11.0431
82902.6 11.3240
82915.5 11.7752
82928.4 12.5664
82941.3 14.1364
82947.8 15.5602
82954.2 17.8611
82960.7 21.8065
82967.1 28.8272
82980.0 49.3620
82983.2 48.0817
82986.5 42.9859
82992.9 30.7516
82997.5 24.4615
83002.2 20.3278
83006.8 17.6213
83011.4 15.8066
83020.7 13.6546
83030.0 12.5045
83039.2 11.8271
83048.5 11.3990
83067.0 10.9116
83085.6 10.6574
83104.1 10.5092
83141.1 10.3532
83178.2 10.2776
83215.3 10.2356
83289.4 10.1929
83363.5 10.1725
83437.6 10.1610
83585.8 10.1485
83882.3 10.1364
84178.7 10.1287
85364.6 10.1072
86550.4 10.0982
87143.3 10.1053
87439.8 10.1200
87588.0 10.1490
87625.1 10.1720
87662.1 10.2286
87680.7 10.2992
87699.2 10.4768
87708.5 10.6943
87713.1 10.8902
87717.7 11.2111
87722.3 11.7917
87724.7 12.2772
87727.0 13.0058
87729.3 14.1762
87731.6 16.1840
87733.9 19.9783
87735.1 23.1371
87736.2 27.6047
87740.0 47.1135
87741.0 45.9583
87741.9 41.1725
87743.8 29.6388
87746.0 20.9350
87748.3 16.5947
87750.5 14.3250
87752.7 13.0337
87755.0 12.2418
87757.2 11.7257
87761.7 11.1211
87766.2 10.7968
87770.7 10.6043
87779.6 10.3985
87797.5 10.2413
87815.4 10.1852
87851.2 10.1471
87887.1 10.1361
88030.4 10.1361
88316.9 10.1658
88603.5 10.2168
88890.1 10.3062
89176.7 10.4794
89320.0 10.6331
89463.3 10.8792
89606.5 11.3095
89678.2 11.6562
89749.8 12.1615
89821.5 12.9353
89893.1 14.1914
89964.8 16.3668
90036.4 20.3057
90173.0 31.5315
90207.2 30.8807
90241.3 28.0488
90309.6 21.1448
90372.4 16.8583
90435.1 14.3857
90497.9 12.9445
90560.6 12.0626
90686.1 11.1112
90811.6 10.6477
90937.1 10.3919
91062.6 10.2372
91313.5 10.0686
91564.5 9.98346
91815.5 9.93389
92317.5 9.87892
92819.4 9.84743
93321.4 9.82480
94325.3 9.78912
96333.2 9.73277
97337.1 9.75084
97839.0 9.93382
97964.5 10.1127
98090.0 10.5506
98152.8 11.0497
98215.5 12.1031
98246.9 13.1235
98278.3 14.8928
98309.6 18.2532
98325.3 21.0753
98341.0 25.1371
98391.0 42.7957
98403.5 41.9538
98416.0 37.7598
98441.0 27.3447
98465.4 20.4817
98489.7 16.5987
98514.1 14.3669
98538.4 13.0112
98587.2 11.5527
98635.9 10.8393
98733.3 10.1984
98830.8 9.92779
99025.6 9.70236
99220.5 9.60425
100000 9.40581
100441 9.27105
100882 9.02812
101102 8.79897
101212 8.62261
101322 8.36834
101433 7.96988
101488 7.67250
101543 7.25958
101598 6.65154
101625 6.22802
101653 5.68544
101681 4.97249
101708 4.04690
101736 2.98620
101749 2.63471
101763 2.90889
101772 3.94123
101782 6.16687
101800 14.6039
101819 21.1767
101837 21.5717
101850 20.4690
101862 19.2494
101875 18.1393
101887 17.2052
101912 15.7712
101937 14.7630
101963 14.0298
101988 13.4777
102038 12.7092
102088 12.2016
102138 11.8445
102238 11.3772
102339 11.0890
102439 10.8974
102640 10.6744
102840 10.5871
103041 10.6396
103141 10.7609
103241 11.0246
103292 11.2595
103342 11.6182
103392 12.1825
103442 13.0759
103570 16.3724
103602 16.2164
103634 15.4060
103698 13.3760
103763 12.0020
103828 11.2485
103893 10.8247
103958 10.5700
104088 10.2954
104218 10.1572
104478 10.0229
104738 9.95628
105258 9.88545
105778 9.84489
107857 9.77459
109937 9.79335
110977 9.86771
111237 9.90644
111497 9.97196
111627 10.0334
111757 10.1631
111822 10.3094
111854 10.4384
111887 10.6487
111919 11.0313
111936 11.3558
111952 11.8495
111968 12.6640
111984 14.1122
112001 16.9982
112009 19.5423
112017 23.3680
112040 38.9853
112046 38.4375
112052 34.8779
112063 25.7486
112074 20.0859
112084 16.7106
112094 14.6905
112104 13.4281
112125 12.0353
112146 11.3405
112166 10.9509
112187 10.7135
112228 10.4557
112269 10.3306
112310 10.2643
112393 10.2090
112558 10.2089
112722 10.2600
113052 10.4395
113382 10.7327
113711 11.2169
114041 12.0771
114370 13.7704
114535 15.2474
114700 17.4527
115170 26.4115
115288 26.0933
115405 23.9648
115640 18.4547
115826 15.3475
116012 13.4107
116199 12.2084
116385 11.4384
116757 10.5692
117129 10.1265
117502 9.87421
117874 9.71758
118618 9.54088
119363 9.44727
120107 9.39043
121597 9.32696
123086 9.30318
123830 9.30929
124575 9.33921
125319 9.42216
125692 9.50766
126064 9.65641
126436 9.93657
126622 10.1747
126809 10.5368
126995 11.1218
127181 12.1507
127274 12.9915
127367 14.2586
127460 16.4192
127507 18.2528
127553 21.3008
127607 28.6914
127670 44.1456
127702 41.7053
127733 34.5287
127775 28.9882
127817 27.0065
127900 26.1306
128074 22.9626
128247 17.8716
128367 15.3004
128486 13.5583
128606 12.3887
128725 11.5865
128964 10.6013
129204 10.0383
129443 9.66852
129682 9.38515
129801 9.26074
129861 9.20711
129921 9.17107
129981 9.18517
130011 9.23922
130041 9.36354
130070 9.63040
130100 10.2094
130130 11.5310
130160 14.6521
130185 19.6453
130210 23.9827
130235 22.4411
130260 18.6466
130289 15.4839
130318 13.6546
130348 12.5626
130377 11.8656
130435 11.0540
130494 10.6074
130552 10.3278
130610 10.1363
130727 9.88927
130961 9.62256
131194 9.46726
131661 9.24015
131895 9.12555
132012 9.19917
132041 9.35075
132070 9.74438
132099 10.8924
132114 12.2510
132128 14.7968
132144 19.6156
132160 23.8509
132176 22.2547
132192 18.3374
132204 16.0799
132215 14.5160
132239 12.6609
132262 11.6763
132286 11.0997
132332 10.4748
132379 10.1537
132567 9.67670
132942 9.43526
133692 9.29406
134443 9.25564
134630 9.26863
134818 9.31693
134912 9.37808
135006 9.51242
135052 9.64569
135099 9.88221
135146 10.3482
135170 10.7544
135193 11.3623
135260 13.9419
135277 13.9038
135294 13.3372
135327 11.7797
135363 10.6508
135399 10.0590
135435 9.74002
135471 9.55556
135543 9.36657
135615 9.27858
135759 9.20342
135903 9.17537
136047 9.16749
136191 9.18124
136263 9.20766
136299 9.23382
136335 9.27934
136371 9.36851
136389 9.44948
136407 9.58354
136425 9.83126
136434 10.0436
136443 10.3739
136452 10.9290
136461 11.9646
136466 12.8480
136470 14.1939
136475 16.3354
136479 19.8365
136490 32.6727
136493 32.4607
136495 29.6761
136501 21.9900
136507 16.1885
136513 13.2811
136519 11.7695
136525 10.9277
136531 10.4057
136537 10.0689
136549 9.68207
136561 9.47620
136574 9.35693
136598 9.23177
136646 9.13942
136695 9.10777
136792 9.08633
136889 9.07906
137277 9.06986
138053 9.07396
138442 9.10044
138830 9.19103
139024 9.31495
139218 9.62432
139315 9.97866
139412 10.7206
139461 11.4290
139509 12.6344
139558 14.8560
139606 19.2316
139690 32.1868
139711 32.0659
139732 29.3979
139774 22.0694
139818 16.8401
139861 13.9693
139905 12.3624
139948 11.4055
140036 10.3875
140123 9.89434
140297 9.45067
140471 9.26183
140820 9.10334
141168 9.03599
142563 8.93755
143260 8.91153
143957 8.89155
144305 8.88718
144654 8.90004
144828 8.93084
144915 8.96473
145003 9.02719
145090 9.15382
145133 9.26839
145177 9.45176
145220 9.76755
145264 10.3604
145286 10.8639
145308 11.6188
145329 12.7863
145351 14.6059
145410 22.1676
145425 22.1465
145440 20.7105
145469 16.6630
145490 14.4212
145512 12.9075
145533 11.8998
145555 11.2147
145597 10.3876
145640 9.93332
145683 9.65885
145726 9.48040
145811 9.26940
145897 9.15262
145983 9.08036
146154 8.99727
146325 8.95115
146496 8.92147
146838 8.88374
147180 8.85806
147523 8.83611
147865 8.81340
148036 8.81323
148079 8.83016
148122 8.89215
148143 8.98119
148165 9.20684
148175 9.46079
148186 9.96801
148191 10.4270
148197 11.1362
148202 12.2951
148207 14.2317
148220 21.6644
148223 21.6575
148226 20.2792
148233 16.4154
148240 13.4332
148247 11.8223
148254 10.9037
148261 10.3589
148268 10.0037
148275 9.76599
148289 9.47059
148303 9.30148
148317 9.19488
148346 9.07149
148402 8.96233
148458 8.91391
148571 8.86851
148684 8.84497
148909 8.81179
149022 8.79239
149078 8.79795
149093 8.82274
149107 8.90773
149114 9.02610
149121 9.30787
149124 9.60704
149128 10.1649
149131 11.3163
149133 12.3871
149135 13.9239
149140 21.2268
149141 21.1647
149143 19.8017
149145 16.1590
149148 13.7972
149150 12.3195
149154 10.8148
149159 10.1170
149163 9.74229
149172 9.37200
149181 9.19887
149200 9.04163
149218 8.97224
149254 8.90973
149290 8.88116
149362 8.85375
149434 8.83973
149579 8.82397
149723 8.81410
150300 8.78955
151455 8.75587
152610 8.72676
153187 8.71367
153476 8.71112
153621 8.72507
153657 8.74161
153693 8.78783
153711 8.84887
153729 9.00383
153738 9.19034
153747 9.61428
153751 10.0606
153756 10.9137
153758 11.6764
153760 12.8058
153763 14.7238
153765 17.7891
153770 29.4837
153771 29.5125
153773 27.1750
153775 20.5080
153777 16.8627
153779 14.4677
153781 12.9144
153783 11.9276
153786 10.7179
153790 10.0689
153798 9.44185
153805 9.16242
153820 8.92688
153835 8.83400
153864 8.76123
153894 8.73368
154013 8.70357
154250 8.69155
154487 8.68682
154724 8.68622
154961 8.69481
155080 8.70779
155199 8.73504
155317 8.79638
155377 8.85617
155436 8.95833
155495 9.14848
155554 9.54941
155584 9.93069
155614 10.5679
155643 11.7143
155673 13.8706
155730 21.0273
155744 21.0624
155759 19.7270
155787 15.9067
155816 13.1561
155845 11.6034
155874 10.7130
155903 10.1723
155932 9.82124
155962 9.58228
156020 9.28790
156078 9.11937
156136 9.01373
156252 8.89221
156368 8.82667
156485 8.78767
156601 8.76900
156659 8.78886
156688 8.88667
156696 8.97806
156703 9.19667
156706 9.45399
156710 9.98832
156714 11.4188
156715 13.1761
156717 17.0886
156720 27.5904
156721 27.5182
156721 25.2497
156723 19.3105
156724 15.8643
156725 13.6018
156727 11.3599
156729 10.3023
156731 9.78201
156736 9.28106
156740 9.06850
156748 8.89078
156757 8.82138
156791 8.74704
156859 8.72149
156995 8.70444
157267 8.68453
157539 8.67090
157811 8.66114
158083 8.65560
158355 8.65979
158491 8.67381
158559 8.68967
158627 8.71957
158695 8.78257
158729 8.84260
158763 8.94526
158797 9.14090
158814 9.31190
158831 9.58112
158848 10.0376
158865 10.8927
158873 11.6207
158882 12.7237
158890 14.4612
158899 17.2641
158920 28.4604
158925 28.5277
158931 26.3322
158941 19.9870
158951 15.9517
158960 13.5406
158969 12.0710
158978 11.1579
158997 10.1368
159015 9.62183
159034 9.32914
159052 9.14766
159089 8.94443
159126 8.83855
159163 8.77642
159237 8.70966
159311 8.67572
159385 8.65568
159533 8.63309
159829 8.61146
160124 8.59899
160716 8.58106
161307 8.56603
163673 8.51242
166039 8.46512
167222 8.46705
167518 8.49125
167814 8.56830
167962 8.66960
168109 8.90833
168183 9.16258
168257 9.64469
168331 10.6844
168368 11.6722
168405 13.2550
168500 19.8721
168524 19.9895
168548 18.8071
168595 15.2398
168633 13.0640
168672 11.6717
168710 10.7905
168748 10.2166
168825 9.55045
168901 9.20018
169054 8.86380
169207 8.71367
169513 8.58967
169820 8.55228
170126 8.56634
170432 8.66998
170585 8.81585
170738 9.16451
170815 9.54105
170891 10.2716
170929 10.9162
170968 11.9227
171006 13.5829
171044 16.4046
171130 27.1691
171152 27.3779
171173 25.3692
171216 19.3068
171246 16.0504
171276 13.8687
171337 11.4644
171397 10.3152
171458 9.69693
171578 9.09630
171699 8.82547
171941 8.59230
172182 8.49422
173149 8.36660
175082 8.28130
177014 8.21540
177498 8.20128
177981 8.19661
178222 8.20843
178343 8.22516
178464 8.25871
178585 8.33030
178645 8.39709
178706 8.50707
178766 8.70305
178826 9.09450
178857 9.44885
178887 10.0185
178917 10.9884
178947 12.7064
179010 18.9690
179026 19.1528
179042 18.0922
179073 14.7842
179101 12.6387
179130 11.4602
179158 10.9749
179186 11.1330
179230 12.6178
179252 12.1142
179274 10.7555
179300 9.67077
179326 9.13003
179353 8.83884
179379 8.66352
179431 8.46572
179484 8.35686
179588 8.23818
179693 8.17208
179903 8.09323
180113 8.03851
180322 7.99073
180532 7.95077
180637 7.94453
180742 7.97942
180794 8.04640
180846 8.22269
180873 8.42060
180899 8.81545
180912 9.17142
180925 9.74063
180938 10.7013
180951 12.3860
180980 18.7901
180987 19.0062
180995 18.0580
181009 15.0976
181025 12.8505
181040 11.7315
181056 11.2769
181071 11.2495
181102 12.2909
181133 15.4700
181180 25.3988
181204 23.7696
181227 18.0619
181257 13.1168
181287 10.6591
181317 9.33235
181346 8.51003
181376 7.93396
181406 7.54726
181421 7.47564
181436 7.60143
181451 8.18594
181466 9.84555
181485 13.8810
181490 14.2447
181502 12.5497
181514 11.1041
181520 11.3350
181537 13.2428
181555 13.7180
181571 13.2118
181588 12.5581
181604 11.9808
181620 11.5127
181653 10.8267
181686 10.3678
181719 10.0427
181751 9.80355
181817 9.47797
181882 9.27537
181948 9.15928
182013 9.17726
182046 9.37694
182063 9.67596
182071 9.95670
182079 10.3953
182100 12.3116
182105 12.3605
182111 11.9749
182121 10.7706
182129 10.0839
182137 9.65475
182153 9.20895
182170 9.00736
182186 8.90046
182218 8.79053
182250 8.73276
182378 8.61982
182507 8.55500
182636 8.50713
182893 8.43808
183150 8.38958
183664 8.32437
184178 8.28181
184692 8.25291
185207 8.23821
185464 8.24158
185721 8.26678
185849 8.30242
185978 8.38413
186042 8.46746
186107 8.61887
186171 8.92803
186203 9.20841
186235 9.64589
186320 11.5815
186341 11.6453
186363 11.2828
186405 10.1232
186446 9.31965
186488 8.87477
186529 8.62665
186571 8.48010
186653 8.32609
186736 8.25246
186902 8.18625
187067 8.15687
187398 8.12825
187729 8.11153
189053 8.06595
191700 7.99012
194348 7.91795
195672 7.88318
196334 7.86856
196665 7.86807
196830 7.88563
196913 7.94017
196954 8.06961
196975 8.30137
196985 8.58897
196996 9.22580
197010 11.0209
197014 11.0934
197017 10.7495
197024 9.64722
197034 8.69211
197044 8.28789
197063 8.00424
197101 7.87887
197178 7.84050
197332 7.83029
197641 7.82314
198257 7.80977
198873 7.80242
199027 7.80581
199181 7.81939
199258 7.83774
199335 7.88158
199374 7.92981
199412 8.02775
199431 8.11973
199451 8.27397
199470 8.55994
199489 9.13377
199520 10.9327
199528 11.0131
199536 10.6868
199551 9.59239
199565 8.87005
199579 8.46017
199593 8.22481
199607 8.08489
199635 7.93702
199663 7.86712
199719 7.80656
199776 7.78223
199888 7.76290
200000 7.75479
200489 7.73987
200733 7.73960
200855 7.75677
200916 7.81450
200947 7.95401
200962 8.19520
200970 8.47467
200977 9.03637
200990 10.8308
200993 10.9091
200996 10.6010
201003 9.56343
201009 8.80754
201015 8.39505
201028 8.03611
201054 7.83130
201105 7.75046
201206 7.72368
201410 7.71210
201818 7.69975
202633 7.67766
204262 7.63900
205892 7.62929
206707 7.67722
207115 7.78308
207217 7.84973
207318 7.97095
207420 8.23973
207471 8.51717
207522 9.01772
207620 10.8014
207645 10.9030
207669 10.6148
207718 9.59993
207765 8.89307
207812 8.50233
207905 8.17392
207999 8.07612
208092 8.06349
208279 8.15703
208467 8.37610
208654 8.77898
208841 9.55109
208934 10.2121
209028 11.2112
209122 12.7743
209215 15.2341
209450 23.0300
209568 19.9898
209685 15.1709
209788 12.3569
209892 10.6883
209995 9.69035
210098 9.08053
210305 8.57982
210408 8.93630
210460 9.91222
210486 11.2024
210512 14.0721
210550 22.8795
210560 23.3648
210569 21.9305
210588 16.9556
210606 13.4472
210624 11.4275
210661 9.53443
210697 8.74929
210733 8.35233
210877 7.78006
211021 7.58425
211165 7.46934
211310 7.38320
211454 7.31429
211526 7.29646
211598 7.33592
211634 7.43647
211652 7.54422
211670 7.73371
211688 8.08708
211706 8.78906
211724 10.3285
211733 11.7577
211742 13.9453
211756 18.9787
211763 21.3532
211770 22.3867
211798 15.6454
211811 13.0477
211824 11.4450
211836 10.4357
211849 9.77406
211875 8.98053
211901 8.54433
211927 8.27423
211952 8.09442
212004 7.87139
212055 7.73975
212107 7.65283
212210 7.54387
212313 7.47664
212416 7.42955
212622 7.36491
213034 7.28453
213446 7.22903
215094 7.06985
216741 6.93271
217565 6.88691
217977 6.94277
218183 7.17807
218286 7.69104
218338 8.42639
218364 9.14024
218389 10.3284
218450 15.4367
218465 15.7608
218480 14.9561
218511 12.0527
218536 10.1762
218562 9.03146
218613 7.91008
218716 7.19290
218920 6.87656
219330 6.78128
219535 6.81014
219740 6.94051
219842 7.11120
219944 7.48941
219996 7.86282
220047 8.51610
220098 9.76794
220124 10.8323
220149 12.3910
220230 20.8430
220250 21.3903
220271 20.1118
220311 15.4012
220340 12.7386
220368 10.9467
220397 9.76968
220425 8.98186
220482 8.05022
220539 7.55058
220653 7.06282
220767 6.83780
220995 6.63056
221223 6.52874
222134 6.32329
223046 6.17815
223502 6.14239
223730 6.26255
223844 6.70933
223901 7.62964
223929 8.83480
223958 11.5350
224000 20.1004
224011 20.6727
224021 19.4631
224043 15.0061
224060 12.1444
224077 10.3096
224111 8.40038
224146 7.53177
224180 7.07454
224252 6.61766
224323 6.41165
224466 6.22681
224753 6.09130
225325 5.99988
226470 6.02101
228760 7.28253
229110 8.09304
229459 10.3869
229770 15.5229
229926 15.2638
230081 12.6567
230278 10.3714
230475 9.32538
230869 8.61650
231657 8.44381
232445 8.49154
232839 8.49473
233036 8.49244
233085 8.50966
233134 8.57870
233159 8.67544
233184 8.89741
233196 9.11560
233208 9.48440
233220 10.1392
233233 11.3442
233260 16.5144
233267 16.8841
233274 16.2886
233287 14.0091
233301 12.2445
233314 11.1557
233327 10.4884
233340 10.0631
233369 9.54137
233397 9.27520
233454 9.02011
233569 8.83635
233797 8.73215
234254 8.67803
235168 8.62823
236995 8.50859
238823 8.36611
239736 8.29377
240193 8.26639
240422 8.29214
240479 8.33174
240536 8.44029
240564 8.57273
240593 8.86604
240607 9.16390
240622 9.70449
240636 10.8042
240643 11.7894
240650 13.3178
240670 21.1762
240675 21.8297
240680 20.7529
240690 16.4355
240701 12.9698
240712 11.1501
240723 10.1621
240733 9.59539
240755 9.00702
240777 8.72809
240820 8.48048
240864 8.37541
241037 8.24578
241384 8.18130
242078 8.11330
242772 8.05903
242945 8.05315
243119 8.06715
243205 8.10012
243292 8.19541
243335 8.30943
243379 8.54689
243400 8.76846
243422 9.13210
243444 9.76586
243465 10.9224
243510 15.6494
243521 16.0452
243532 15.4417
243555 12.9863
243577 11.0734
243600 9.99399
243623 9.37981
243645 9.00864
243690 8.60711
243736 8.40724
243826 8.21888
243917 8.13214
244098 8.04930
244279 8.00588
245003 7.91212
246450 7.78026
247898 7.68177
248622 7.77280
248984 8.19623
249165 9.04036
249256 10.0932
249346 12.3418
249490 20.1058
249526 20.8417
249562 19.9328
249634 16.0630
249716 13.1856
249756 12.7468
249797 13.1244
249880 16.8203
249922 16.3469
249963 13.7071
249998 11.9397
250032 10.7918
250101 9.54378
250239 8.55938
250515 7.93108
251067 7.54071
252172 7.21064
252724 7.07683
253276 6.95022
253552 6.90137
253828 6.89946
253967 6.95935
254105 7.16663
254174 7.43252
254243 8.02045
254277 8.60042
254312 9.60953
254346 11.5071
254381 15.2661
254410 20.6391
254440 24.4784
254470 21.1758
254499 15.8350
254519 13.2774
254539 11.5303
254579 9.51539
254619 8.49456
254659 7.92091
254739 7.34053
254819 7.07114
254979 6.84957
255139 6.79804
255459 6.98974
255779 7.69067
256077 9.00282
256430 10.3690
256860 9.89685
257081 10.3138
257643 11.3419
258003 11.1291
258364 10.7373
258724 10.3581
259084 10.0351
259805 9.54708
260165 9.36076
260345 9.27573
260435 9.23731
260480 9.24811
260503 9.37598
260514 9.76319
260520 10.4773
260522 11.3310
260525 13.1159
260530 19.4099
260531 19.8786
260532 19.0511
260535 15.7596
260538 12.8424
260541 11.3892
260547 10.2334
260560 9.61014
260584 9.34694
260634 9.23514
260733 9.16461
260931 9.08403
261328 8.96465
261724 8.90250
261922 8.99794
261972 9.09843
262021 9.31143
262071 9.83643
262096 10.4065
262120 11.4546
262170 15.7916
262183 16.2315
262195 15.6993
262220 13.3363
262244 11.5429
262268 10.5243
262293 9.94682
262317 9.60060
262365 9.22660
262414 9.04045
262511 8.86243
262608 8.77642
262996 8.62891
263773 8.48560
264550 8.40439
264744 8.41251
264938 8.47580
265035 8.56652
265132 8.76785
265229 9.27792
265278 9.83129
265326 10.8405
265430 15.2544
265456 15.7059
265482 15.2352
265534 13.0505
265595 11.0876
265656 10.0491
265717 9.48665
265777 9.15687
265899 8.80520
266021 8.62834
266264 8.45406
266507 8.36573
267481 8.20616
268454 8.12063
268941 8.09134
269184 8.09136
269306 8.12542
269367 8.21467
269397 8.37047
269412 8.55723
269427 8.95558
269439 9.54597
269450 10.3066
269456 10.4562
269461 10.2687
269473 9.43359
269486 8.73622
269500 8.41794
269527 8.18366
269581 8.07312
269689 8.03383
269905 8.01461
270338 7.98987
271203 7.94456
272934 7.86363
274664 7.79404
275529 7.76740
275962 7.76944
276070 7.77990
276178 7.80790
276232 7.83966
276286 7.90420
276340 8.06349
276367 8.24304
276394 8.59884
276417 9.17138
276440 9.92623
276451 10.0832
276463 9.91299
276486 9.09881
276502 8.63676
276518 8.33981
276549 8.03225
276581 7.89628
276613 7.82737
276677 7.76421
276740 7.73728
276868 7.71426
276995 7.70356
277504 7.68109
278522 7.64618
280558 7.57886
282595 7.51148
283613 7.48068
283868 7.47830
284122 7.48963
284249 7.51244
284377 7.57538
284440 7.65010
284504 7.80987
284536 7.96587
284567 8.23914
284599 8.76955
284631 9.92306
284680 14.0426
284692 14.5530
284705 14.1593
284729 12.0673
284758 10.2140
284787 9.33521
284816 8.96185
284845 8.86765
284874 8.98691
284903 9.35280
284933 10.1164
284962 11.6223
285020 18.3035
285035 19.1098
285049 18.4084
285079 14.8470
285097 12.9086
285115 11.5251
285133 10.5699
285152 9.90426
285188 9.08212
285225 8.62157
285261 8.33800
285298 8.15130
285371 7.92714
285444 7.80063
285517 7.72109
285664 7.62774
285956 7.54043
286249 7.49670
286541 7.46774
286834 7.44478
287126 7.42742
287273 7.44752
287309 7.47929
287346 7.56479
287364 7.66390
287382 7.86499
287401 8.33699
287410 8.81938
287419 9.66067
287440 13.7061
287445 14.1940
287451 13.8015
287461 11.7849
287472 10.1727
287482 9.24260
287492 8.69960
287503 8.37128
287523 8.01116
287544 7.83009
287585 7.65968
287627 7.58267
287709 7.51310
287792 7.48129
287958 7.45023
288123 7.43365
288785 7.40144
289447 7.39712
289612 7.40803
289778 7.43854
289860 7.47286
289943 7.54037
289984 7.60064
290026 7.69638
290067 7.85953
290108 8.15559
290149 8.69300
290190 9.42347
290210 9.59059
290231 9.43949
290272 8.65443
290296 8.26383
290320 7.99382
290368 7.68883
290417 7.54233
290465 7.46417
290561 7.38940
290658 7.35612
290851 7.32668
291044 7.31256
291817 7.28251
293362 7.23593
294907 7.19087
295679 7.17143
296065 7.16807
296258 7.17926
296355 7.21496
296403 7.29639
296427 7.43369
296439 7.59643
296451 7.93583
296461 8.45819
296470 9.17283
296479 9.19658
296489 8.44070
296499 7.84403
296509 7.54985
296528 7.31791
296568 7.20275
296647 7.16552
296806 7.16294
296964 7.17602
297123 7.20465
297281 7.26500
297440 7.40441
297519 7.54500
297599 7.79308
297678 8.26959
297757 9.27026
297824 10.9402
297890 13.1875
297923 13.7129
297957 13.3739
298023 11.4584
298045 10.9300
298067 10.6249
298079 10.6240
298090 10.8226
298101 11.4227
298112 12.9097
298121 15.5438
298130 19.0864
298135 19.8698
298139 19.2012
298148 15.7679
298155 13.6042
298162 12.1408
298168 11.1737
298175 10.5243
298188 9.71569
298202 9.24448
298228 8.71229
298255 8.40998
298308 8.05640
298361 7.84682
298468 7.60246
298575 7.46470
298788 7.31585
299001 7.23607
299214 7.18317
299427 7.13976
299640 7.09260
299747 7.07612
299800 7.15010
299827 7.40570
299840 7.83121
299847 8.27400
299853 9.02498
299870 13.0393
299874 13.5483
299879 13.2435
299887 11.4944
299894 10.2003
299901 9.34464
299915 8.43408
299929 8.00092
299944 7.76612
299972 7.52718
300000 7.41149
300042 7.32109
300084 7.27125
300168 7.21745
300335 7.16927
300671 7.13147
301006 7.13001
301090 7.14363
301174 7.17884
301257 7.28769
301299 7.44078
301320 7.58919
301341 7.83734
301366 8.35096
301390 9.06153
301402 9.23451
301414 9.10143
301439 8.35443
301457 7.89990
301475 7.61544
301512 7.33358
301548 7.21316
301584 7.15328
301657 7.09838
301730 7.07430
302020 7.04056
302602 7.01237
303765 6.96768
304928 6.92344
305510 6.89778
305801 6.88332
305946 6.89271
306019 6.97540
306055 7.21178
306073 7.61856
306082 8.06859
306091 8.90221
306110 12.7061
306115 13.2252
306119 12.9141
306129 11.0329
306136 9.72691
306144 8.88901
306158 8.00732
306173 7.60597
306188 7.39498
306218 7.18837
306248 7.09278
306307 7.00647
306366 6.96768
306485 6.93153
306604 6.91364
307079 6.88147
308030 6.85460
308505 6.85389
308981 6.87580
309218 6.91014
309337 6.94178
309456 6.99318
309575 7.08492
309634 7.16128
309694 7.27830
309753 7.47492
309783 7.63037
309812 7.85644
309842 8.20732
309872 8.80139
309887 9.26930
309901 9.92846
309916 10.8985
309931 12.3244
309970 17.1366
309980 16.6332
309990 15.0614
310009 11.4650
310030 9.15672
310051 8.10373
310072 7.64676
310093 7.49198
310114 7.53835
310135 7.79786
310157 8.40591
310167 8.93883
310178 9.71396
310210 12.7587
310226 11.5822
310243 9.59382
310257 8.41312
310272 7.73240
310286 7.33545
310301 7.09311
310330 6.83423
310359 6.71139
310418 6.60933
310476 6.57355
310593 6.55439
310710 6.55286
311177 6.55642
311644 6.54727
312111 6.52899
313046 6.48121
313513 6.50055
313747 6.66339
313863 7.00972
313922 7.44331
313980 8.35823
314080 12.0872
314105 12.6271
314130 12.3529
314180 10.5106
314218 9.28076
314255 8.45337
314330 7.55222
314405 7.12160
314480 6.88430
314780 6.49984
315080 6.32497
315381 6.16589
315681 5.96406
315981 5.66179
316131 5.44623
316281 5.16899
316431 4.82026
316581 4.42777
316769 4.17674
316863 4.52366
316910 5.06181
316934 5.70803
316945 6.44516
316951 7.11248
316957 8.15395
316970 11.2300
316975 10.6234
316980 9.20008
316983 8.43311
316988 7.46368
316994 6.91955
317004 6.45935
317026 6.39784
317068 6.97651
317224 9.79814
317379 11.9750
317400 12.1880
317483 12.7815
317566 12.9512
317732 12.6250
317879 12.4057
318026 12.4275
318320 12.9833
318630 14.0839
318940 15.5138
319560 17.4821
320800 12.2186
321419 10.0371
322038 8.74742
322657 7.95301
322967 7.71054
323044 7.69888
323122 7.76867
323160 7.88457
323199 8.14342
323238 8.77718
323257 9.43774
323276 10.6078
323298 13.0633
323320 16.5221
323331 17.4398
323342 16.9761
323364 13.8218
323385 11.3186
323406 9.87980
323427 9.05920
323448 8.56361
323490 8.01989
323531 7.73932
323615 7.45337
323699 7.29939
324035 6.97465
324705 6.56295
326047 5.82057
326718 5.38377
327389 4.84107
328059 4.14496
328730 3.36426
329158 3.28981
329372 4.15813
329479 5.54229
329586 8.78811
329740 16.1773
329817 13.8716
329894 9.86436
329953 7.74551
330012 6.42098
330130 5.14640
330267 4.73803
330405 4.80864
330679 5.46145
330954 6.23933
331091 6.59006
331159 6.75560
331194 6.84933
331211 6.93476
331219 7.07489
331224 7.34210
331228 8.89495
331230 10.7545
331232 8.73723
331237 7.13274
331241 6.96923
331251 6.93348
331269 6.96105
331307 7.03406
331381 7.16938
331530 7.39904
331949 7.84007
332158 8.06750
332262 8.41325
332315 8.98619
332341 9.66804
332367 11.0945
332410 16.8904
332421 17.8473
332432 17.4495
332453 14.3680
332477 11.6617
332500 10.2512
332547 9.08908
332642 8.46369
332830 8.22067
333208 8.12846
333962 8.02971
334717 7.95552
334905 7.96670
335094 8.03342
335188 8.11997
335282 8.29326
335377 8.66751
335424 9.01546
335471 9.56557
335541 10.9973
335610 13.0524
335645 13.6198
335680 13.4068
335749 11.6792
335795 10.6386
335840 9.90233
335932 9.05613
336023 8.64345
336114 8.43576
336205 8.35820
336296 8.42992
336342 8.57001
336388 8.86146
336433 9.48185
336479 10.9071
336514 13.2656
336550 16.6600
336568 17.6113
336586 17.2477
336621 14.3146
336660 11.7052
336698 10.2837
336737 9.50600
336775 9.04772
336852 8.55668
336928 8.30887
337082 8.06494
337235 7.94262
337849 7.73296
339076 7.55408
341531 7.34341
343986 7.18918
345214 7.11873
345828 7.08525
345981 7.08202
346135 7.09525
346211 7.12466
346288 7.21092
346326 7.31578
346365 7.53715
346384 7.74620
346403 8.09324
346422 8.70890
346441 9.86992
346461 12.1363
346480 15.4577
346490 16.4318
346499 16.1237
346519 13.2809
346531 11.5742
346544 10.3725
346556 9.55962
346569 9.00383
346594 8.33158
346619 7.96215
346645 7.73872
346670 7.59314
346720 7.42025
346771 7.32359
346821 7.26314
346922 7.19255
347123 7.12620
347325 7.09232
348131 7.02370
348936 6.97379
349339 6.94457
349541 6.93276
349642 6.97454
349667 7.02796
349692 7.16265
349717 7.58912
349730 8.18571
349736 8.74520
349742 9.62896
349751 11.8929
349760 15.1726
349765 16.1410
349769 15.8360
349778 13.1046
349783 11.5423
349789 10.4051
349799 9.05241
349810 8.35764
349821 7.96471
349843 7.56250
349864 7.36991
349907 7.19352
349950 7.11466
350037 7.04297
350123 7.00949
350296 6.97555
350469 6.95633
351159 6.91196
352541 6.84987
353922 6.79267
354268 6.78016
354613 6.77553
354786 6.78617
354959 6.83512
355045 6.90821
355088 6.97788
355131 7.09350
355175 7.30043
355218 7.70642
355239 8.06390
355261 8.61593
355282 9.49627
355304 10.9027
355332 13.7214
355360 15.8558
355388 14.3472
355416 11.7042
355433 10.5211
355450 9.67064
355483 8.61695
355517 8.03998
355551 7.69717
355584 7.47822
355618 7.32993
355685 7.14690
355752 7.04125
355820 6.97399
355954 6.89425
356088 6.84864
356223 6.81876
356492 6.78041
357030 6.73534
357567 6.70359
358643 6.65008
358912 6.63987
359181 6.64069
359315 6.65787
359449 6.71989
359517 6.80185
359584 6.98547
359617 7.16617
359651 7.47758
359685 8.05677
359718 9.22701
359749 11.3910
359780 14.6345
359796 15.6384
359811 15.4050
359842 12.7029
359877 10.1589
359911 8.81904
359946 8.10814
359981 7.69925
360016 7.44328
360051 7.27297
360120 7.06665
360190 6.94938
360259 6.87538
360398 6.78822
360676 6.70631
360955 6.66501
362067 6.58486
364293 6.48469
366518 6.38424
367631 6.32695
368187 6.29975
368466 6.30314
368605 6.35832
368639 6.40697
368674 6.51067
368709 6.78788
368726 7.12863
368744 7.87125
368757 9.06408
368770 10.9125
368777 11.5206
368783 11.3615
368796 9.58450
368806 8.47346
368815 7.76416
368834 7.03686
368852 6.71706
368871 6.55430
368908 6.40347
368945 6.33795
369020 6.28220
369094 6.25813
369243 6.23582
369392 6.22731
369541 6.23335
369690 6.27650
369764 6.33646
369838 6.46527
369913 6.77267
369950 7.08662
369987 7.62990
370034 8.90172
370080 10.8245
370103 11.4366
370127 11.3359
370173 9.82540
370215 8.58426
370257 7.81547
370298 7.35234
370340 7.06074
370424 6.73154
370507 6.55839
370674 6.38351
370841 6.29387
371510 6.12311
372178 5.99927
372513 5.93302
372680 5.90265
372763 5.90264
372805 5.93898
372826 6.01889
372847 6.39215
372860 7.35702
372867 7.49239
372873 6.87847
372881 6.32323
372889 6.08790
372905 5.92337
372937 5.84583
373002 5.80794
373130 5.76688
373387 5.68395
373901 5.48243
374361 5.30671
374820 5.43481
375050 5.78357
375280 6.25591
375739 6.88337
376043 6.98327
376347 6.97220
376652 6.92681
376804 6.90952
376880 6.92264
376918 6.97313
376937 7.06310
376956 7.40065
376970 8.34675
376977 8.48053
376984 7.83926
376997 7.17577
377009 6.97970
377033 6.87591
377082 6.83512
377179 6.81181
377373 6.77865
377763 6.72020
378152 6.68126
378346 6.69737
378444 6.76461
378492 6.86542
378541 7.12914
378570 7.50304
378600 8.09756
378615 8.30496
378630 8.25524
378659 7.64957
378678 7.30544
378697 7.07762
378735 6.83460
378773 6.72327
378811 6.66430
378887 6.60562
378962 6.57668
379114 6.56144
379190 6.63374
379228 6.83323
379247 7.13413
379256 7.43280
379266 7.93148
379278 9.14326
379290 11.0000
379296 11.6166
379302 11.5204
379315 10.0184
379327 8.68144
379339 7.92367
379352 7.49897
379364 7.24501
379389 6.97229
379414 6.83597
379463 6.70626
379513 6.64553
379612 6.58658
379711 6.55587
380108 6.49494
380901 6.42526
381694 6.36635
382090 6.33656
382288 6.33914
382387 6.41645
382437 6.61910
382462 6.91945
382474 7.21074
382486 7.68904
382503 8.89090
382520 10.7521
382528 11.3709
382537 11.3003
382554 9.84028
382569 8.60445
382585 7.86198
382600 7.42151
382616 7.15082
382647 6.85031
382678 6.69656
382740 6.54859
382802 6.47954
382927 6.41466
383051 6.38377
383300 6.36012
383424 6.38039
383486 6.44224
383517 6.53951
383548 6.82810
383564 7.19641
383580 7.78713
383588 7.99513
383596 7.95093
383612 7.35834
383629 6.84405
383647 6.60361
383683 6.42521
383754 6.33704
383896 6.29983
384180 6.27515
384748 6.24067
385316 6.20387
385600 6.18132
385742 6.18729
385813 6.27029
385848 6.47873
385866 6.77635
385884 7.49755
385897 8.69181
385910 10.5463
385917 11.1676
385923 11.1063
385936 9.69191
385946 8.71094
385955 8.03711
385974 7.28227
385992 6.91763
386011 6.71760
386048 6.51588
386086 6.41914
386161 6.32847
386235 6.28583
386385 6.24389
386535 6.22157
387133 6.17594
388330 6.12077
390723 6.02918
393116 5.94438
394313 5.91581
394612 5.92073
394911 5.95139
395061 5.99646
395210 6.10544
395285 6.22191
395360 6.44374
395435 6.92946
395472 7.40581
395509 8.21591
395555 10.0622
395600 13.0359
395623 14.1112
395645 14.0122
395691 11.4025
395732 9.33542
395772 8.14677
395813 7.48517
395854 7.10644
395936 6.76893
396017 6.76043
396084 7.00320
396150 7.50464
396183 7.69397
396217 7.63596
396283 6.99285
396341 6.53626
396399 6.28389
396457 6.14354
396515 6.05934
396632 5.96694
396748 5.91816
396980 5.86625
397212 5.83688
398142 5.77286
399071 5.73107
400000 5.71164
400343 5.72555
400686 5.78460
400858 5.86125
401029 6.02659
401115 6.18531
401201 6.45620
401286 6.96737
401329 7.40410
401372 8.06297
401436 9.78206
401500 12.6177
401532 13.7098
401564 13.5358
401628 10.3620
401669 8.57148
401711 7.44072
401752 6.75188
401793 6.32406
401876 5.87095
401959 5.68074
402041 5.63970
402124 5.75421
402206 6.15836
402289 7.28910
402355 9.38024
402420 12.5669
402453 13.6216
402486 13.6725
402551 11.8490
402592 10.5758
402634 9.57060
402716 8.26655
402799 7.53068
402881 7.08320
403047 6.58761
403212 6.32891
403542 6.07297
403873 5.95469
404533 5.88927
404864 5.93995
405194 6.11498
405447 6.44009
405700 6.99379
405953 7.17535
406206 6.62439
406563 6.03185
406919 5.78078
407633 5.58710
409060 5.44100
410486 5.35102
411200 5.30887
411557 5.28693
411735 5.31056
411780 5.35160
411824 5.45952
411846 5.57726
411869 5.79681
411891 6.24390
411902 6.63992
411913 7.24770
411932 9.06194
411950 12.0059
411959 13.0842
411968 13.0976
411987 10.9163
412006 8.79342
412025 7.59178
412045 6.92178
412064 6.52386
412102 6.09545
412141 5.88194
412218 5.68197
412295 5.59324
412449 5.52102
412603 5.50057
412911 5.52395
413219 5.61683
413527 5.81782
413835 6.25059
413989 6.65005
414143 7.28991
414297 8.35542
414451 10.1579
414810 16.1446
414990 14.4178
415169 11.1386
415337 9.02326
415505 7.75956
415673 6.99190
415841 6.50125
416177 5.93666
416512 5.63294
417184 5.31711
417856 5.14581
419199 4.92623
419871 4.83076
420039 4.80983
420207 4.80291
420291 4.82045
420374 4.88996
420416 4.97830
420458 5.15974
420500 5.57202
420521 5.97579
420542 6.64659
420571 8.39632
420600 11.2750
420615 12.3658
420629 12.3966
420658 10.2343
420685 8.28168
420713 7.11681
420740 6.43985
420767 6.02578
420822 5.56770
420877 5.33284
420986 5.10256
421096 4.99056
421315 4.87664
421534 4.81298
422409 4.66828
423285 4.56908
423723 4.56483
423833 4.59435
423942 4.67184
424052 4.88832
424106 5.13934
424161 5.63303
424216 6.63974
424270 8.33035
424297 8.98964
424325 9.00316
424379 7.61471
424420 6.59622
424462 5.93215
424503 5.51603
424545 5.24785
424627 4.93807
424710 4.77272
424876 4.60409
425041 4.51679
425703 4.35114
426365 4.24806
426696 4.22366
426779 4.23868
426861 4.29266
426944 4.47719
426986 4.72339
427027 5.26603
427063 6.31211
427100 8.04409
427118 8.70128
427137 8.74991
427173 7.54831
427206 6.47017
427239 5.79345
427272 5.38301
427305 5.12620
427371 4.84129
427437 4.70165
427568 4.59818
427700 4.61506
427832 4.74052
427964 5.04677
428095 5.76603
428161 6.46259
428227 7.57268
428400 11.6619
428487 10.4691
428573 8.16381
428671 6.44736
428770 5.53229
428868 5.02051
428966 4.71014
429163 4.36340
429359 4.17506
429556 4.05438
429752 3.97688
429850 3.96316
429949 3.99917
429998 4.06725
430047 4.22328
430096 4.60220
430120 4.98829
430145 5.64812
430178 7.33604
430210 10.1573
430226 11.2537
430243 11.3231
430275 9.23281
430297 7.76881
430320 6.73266
430342 6.03496
430364 5.55908
430408 4.98128
430453 4.65848
430542 4.32296
430630 4.15280
430808 3.97609
430985 3.87691
431696 3.65635
433116 3.35427
434537 3.07758
435247 2.96988
435957 3.12851
436300 3.91135
436370 4.09180
436643 3.58714
436915 2.95310
437187 2.68281
437731 2.42754
438820 2.11894
440997 1.63773
443173 1.35556
445350 1.43076
445787 1.51160
446006 1.64401
446115 1.91019
446170 2.29049
446225 3.26776
446262 4.87902
446300 7.63313
446319 8.75574
446338 8.88865
446376 6.90928
446423 4.62505
446471 3.50392
446519 2.94425
446566 2.63622
446757 2.20246
447138 2.10853
447900 2.30009
449425 2.92927
450950 3.63761
451712 3.98124
452094 4.14157
452284 4.22133
452380 4.29251
452427 4.42062
452451 4.62544
452463 4.84992
452475 5.27706
452487 6.19762
452500 7.77617
452506 8.41677
452513 8.48111
452525 7.30416
452539 6.08838
452553 5.44774
452582 4.91940
452610 4.72493
452638 4.63599
452694 4.56565
452751 4.54647
452976 4.58274
453428 4.73612
454330 5.04453
455914 5.44456
456706 5.52783
457102 5.52208
457300 5.50327
457399 5.48906
457448 5.48303
457473 5.49444
457485 5.55767
457492 5.75047
457495 6.14536
457498 7.74123
457500 10.4058
457502 8.14970
457505 6.38697
457508 5.90079
457514 5.63762
457526 5.52957
457550 5.48712
457598 5.46399
457693 5.43657
457884 5.37883
458266 5.21831
459030 4.66294
460823 2.26513
461271 1.75205
461719 1.45248
462167 1.50223
462279 1.64713
462391 1.96567
462447 2.27344
462503 2.80417
462559 3.81097
462615 5.89506
462700 11.0178
462742 9.49114
462785 6.32229
462837 3.88103
462890 2.74447
462941 2.20012
462992 1.90713
463094 1.64163
463299 1.52741
463707 1.64614
464525 2.07601
465342 2.51337
465751 2.76107
465955 2.98862
466057 3.23672
466159 3.81516
466230 4.73779
466300 6.35138
466335 7.04984
466370 7.18031
466441 6.06835
466518 4.88468
466595 4.26212
466750 3.77121
467043 3.57907
467336 3.59587
467923 3.75631
469096 4.24568
470268 5.18908
470561 5.62220
470855 6.22802
471001 6.63221
471148 7.15411
471221 7.49878
471294 7.97514
471331 8.32239
471368 8.82913
471404 9.67486
471441 11.2738
471461 12.6809
471500 15.3193
471530 14.4764
471559 12.5715
471589 11.3222
471618 10.6810
471647 10.3786
471677 10.2599
471736 10.2955
471794 10.5041
471912 11.1276
472030 11.8536
472500 14.0220
473020 12.7292
473539 10.0429
474270 7.66155
475000 6.53495
475000 5.09707
475480 7.04855
476000 6.10703
476170 5.79869
478370 5.54629
479070 6.33674
480450 5.60525
485360 5.53804
486490 7.03705
487250 5.93673
489480 6.08119
489960 6.48642
490060 5.90681
490870 6.08009
493320 2.88597
493750 3.24791
494090 4.50277
494430 3.84533
496330 5.22340
496620 8.16747
496810 10.3713
497250 6.13759
498430 5.74427
500000 5.81180
508880 6.19479
509330 6.29799
511310 5.75129
511980 7.53099
512380 5.97629
515980 5.94369
516700 6.19579
518720 5.66309
519510 6.49239
519970 8.36729
520390 6.10539
521070 5.81639
522330 7.77939
522810 6.14229
526460 6.60289
527900 8.94809
528970 11.5750
530680 7.04419
531710 6.79209
536380 5.86089
537310 5.85169
537970 6.66359
538410 6.38989
538740 6.92779
538960 5.84739
541060 4.40539
542340 2.13479
542950 3.30320
543290 6.01620
543680 9.27040
544460 6.26320
546990 5.94970
547830 6.97620
548620 11.4170
549590 6.36420
550000 6.17560
552950 4.81830
553810 3.56160
555250 4.37520
555590 5.47380
556000 4.54110
557730 6.92830
558840 10.7080
559540 9.17080
560940 6.47490
563110 6.08210
563700 8.00280
564520 6.25970
565410 6.37800
566060 6.48650
567610 5.67330
569160 6.37500
572480 6.07090
572780 6.04450
580000 5.38500
580320 5.35590
581740 5.96240
586910 5.55580
587780 6.07490
590240 5.26740
591880 7.01170
592200 5.73830
594620 4.16860
596540 5.03000
597500 7.61690
598150 5.68070
600000 5.64110
601580 5.60690
602160 7.52060
602550 10.5100
603200 6.77160
604710 6.49680
605100 7.32700
607270 6.14240
608860 5.87850
609580 7.62150
610450 6.07960
611980 7.55169
612840 10.3460
614520 6.24149
615590 6.70059
616130 8.16369
616670 6.94809
617680 6.56389
620870 5.50709
621900 6.03869
622510 7.89969
622920 5.99569
631780 5.33749
632690 7.14959
633740 5.51120
634800 5.31410
636490 7.55210
637060 5.81130
641900 5.21150
643441 6.57350
643620 6.73210
644560 5.61360
645640 5.23720
646730 5.95840
647380 7.23560
647740 5.95980
648910 7.28720
649420 10.9510
650000 6.51330
650880 5.28820
652630 7.18210
652850 5.58590
653440 3.63460
654550 4.90810
656180 5.02970
658920 5.23360
659740 8.68070
661160 6.34029
661610 9.12489
662290 5.78739
666050 5.12949
667340 7.17909
668410 7.44449
668860 7.20709
669930 5.19539
685080 4.94139
687290 5.99230
688330 6.75169
689360 6.80289
691520 3.14810
692640 4.16480
693200 6.62300
693850 4.87070
695380 5.04900
696030 6.97880
696830 5.84040
697560 6.66720
699030 8.63810
700000 6.92220
700090 6.76600
700820 7.12730
701800 8.93300
702380 10.5620
703120 6.94330
705920 5.38720
709150 5.87540
714840 4.89350
716860 6.30060
720260 4.98730
724100 5.07910
726170 9.85100
727550 7.19430
729710 5.76260
730760 6.01880
734160 4.93880
735480 5.86810
738120 4.66880
739450 5.81890
742110 4.82210
744790 5.09410
746130 6.09500
748830 4.77140
750190 6.77460
751000 9.68040
752000 6.22250
758310 4.78940
759690 5.08490
761080 3.38670
763020 3.23850
763490 4.29130
764040 6.57790
765350 7.61630
766660 7.29080
767500 5.63490
768340 6.34730
769470 5.01160
770320 5.69800
770880 7.01310
771540 5.03090
772860 5.05520
773810 5.80770
774570 7.90550
776190 3.12230
776660 3.06150
777620 4.34500
778190 5.04870
779150 4.22940
780010 5.06240
780680 5.84910
781260 7.06170
782030 5.66560
784150 5.21140
786190 7.52220
788230 5.26310
789400 5.59440
790670 5.57190
792830 4.49120
793720 5.17420
794900 5.05220
797870 4.99500
798870 9.03640
800000 7.68280
801960 5.33510
803260 4.78540
804260 3.36540
806980 3.50130
807690 3.62200
808700 4.29220
810000 4.30060
811140 4.30800
812260 5.89230
813070 5.70980
814100 4.83260
814710 5.79520
817280 4.54610
820270 4.88890
820890 6.94560
821410 8.64160
822340 7.21780
824320 6.09500
825470 5.06160
826830 5.10370
827350 6.04970
828090 4.98830
830000 5.03880
830300 5.04750
831560 6.14350
834630 4.92540
838260 5.03130
840940 6.06530
841580 5.43510
842120 4.11810
842550 4.69260
843300 8.23570
844280 5.62730
846220 5.43330
847200 7.83710
848830 4.31880
854200 4.66410
854750 5.05420
856950 4.11770
857840 3.61760
858830 5.07730
861390 4.14020
862390 5.37140
863510 4.38620
867320 4.63010
868450 5.32930
869800 4.57070
870930 5.20030
872180 4.95560
874340 4.34360
877080 4.77460
879030 4.74890
881790 4.19820
882830 4.16420
883980 4.12730
885030 6.31920
885840 4.81970
887700 5.22080
889330 5.50110
891090 4.44010
892610 5.28440
896150 4.29140
897100 5.38040
897920 6.98010
899350 5.18170
900000 6.11840
900540 6.89550
902090 4.68800
902175 4.73691
902175 4.73714
902380 4.85510
903400 5.44100
908200 4.50670
909650 4.64590
911710 4.73110
914380 4.56800
915600 4.67560
918540 4.27930
919520 6.12110
920260 5.01070
921120 5.90790
923090 5.40380
924830 4.75870
925690 5.40750
927680 5.05980
929800 5.29630
931050 6.59680
931680 4.65870
932810 4.75170
933560 6.30020
935830 4.89260
940260 4.28030
942800 3.84550
943570 4.64070
944460 4.77390
945360 6.49020
947020 3.56000
949210 3.71760
951150 4.92130
952570 6.38170
953860 5.05360
954640 5.04830
956070 4.35440
958420 4.48630
959080 4.76430
959860 5.72790
964070 3.83040
966180 4.89160
967110 5.06140
968830 3.97780
969900 6.04330
970700 5.20980
971360 5.98360
972830 4.29410
974570 3.86220
975640 5.34600
976990 4.36290
977930 5.02990
978870 4.37520
980630 6.14780
981580 5.10300
983070 4.25760
984430 6.34620
985520 5.21880
986610 7.55750
987980 5.11660
989070 5.05330
990170 4.42420
992230 7.14960
993750 4.68140
994990 4.94210
996930 4.51400
998460 7.54770
999850 5.39990
999990 5.45810
1.00000E+06 5.43850
1.00010E+06 5.23490
1.00210E+06 5.62040
1.00490E+06 4.50790
1.00730E+06 5.78250
1.00900E+06 5.41490
1.01080E+06 4.88700
1.01360E+06 3.68970
1.01450E+06 4.28550
1.01580E+06 5.57000
1.01890E+06 5.08960
1.01990E+06 7.23920
1.02160E+06 4.82100
1.02340E+06 4.98890
1.02510E+06 4.80920
1.02800E+06 4.51230
1.02950E+06 5.71570
1.03050E+06 5.50130
1.03180E+06 4.97570
1.03340E+06 5.20090
1.03460E+06 4.57670
1.03660E+06 5.82630
1.03870E+06 5.52090
1.03960E+06 4.94650
1.04060E+06 5.53250
1.04310E+06 4.61620
1.04450E+06 5.06500
1.04490E+06 4.67780
1.04730E+06 5.34660
1.05160E+06 4.17760
1.05300E+06 5.25000
1.05400E+06 6.26840
1.05720E+06 4.36350
1.05900E+06 4.28340
1.06070E+06 4.54940
1.06190E+06 6.65320
1.06280E+06 5.35900
1.06540E+06 4.35790
1.06710E+06 5.82740
1.06940E+06 3.94090
1.07050E+06 4.63910
1.07140E+06 4.06740
1.07300E+06 5.17540
1.07440E+06 5.16980
1.07580E+06 5.10350
1.07890E+06 5.44550
1.08220E+06 4.33830
1.08330E+06 3.90170
1.08420E+06 4.57090
1.08500E+06 4.58570
1.08740E+06 5.01380
1.08930E+06 4.64510
1.09150E+06 4.58400
1.09230E+06 4.96180
1.09310E+06 3.83940
1.09520E+06 3.99340
1.09610E+06 4.15030
1.09740E+06 4.02800
1.09980E+06 6.25740
1.10000E+06 6.04330
1.10090E+06 5.08030
1.10350E+06 4.85930
1.10460E+06 6.06910
1.10580E+06 5.26050
1.10770E+06 4.24060
1.10980E+06 5.04080
1.11130E+06 7.52590
1.11460E+06 6.12990
1.11720E+06 5.27340
1.12050E+06 4.09630
1.12180E+06 4.84830
1.12350E+06 5.14500
1.12500E+06 5.17140
1.12800E+06 4.60280
1.12900E+06 5.76760
1.13100E+06 5.12940
1.13220E+06 7.60420
1.13470E+06 5.26810
1.13840E+06 4.42720
1.14080E+06 4.43750
1.14230E+06 4.07040
1.14380E+06 5.30300
1.14490E+06 4.26650
1.14670E+06 6.40640
1.14790E+06 4.81210
1.14950E+06 5.79240
1.15020E+06 6.86940
1.15150E+06 5.03210
1.15410E+06 5.22630
1.15590E+06 4.59040
1.15710E+06 6.55900
1.16110E+06 4.88370
1.16260E+06 5.51560
1.16350E+06 5.62480
1.16440E+06 4.57340
1.16540E+06 4.24190
1.16670E+06 6.38560
1.16740E+06 6.52040
1.16910E+06 4.15740
1.17000E+06 5.12820
1.17070E+06 6.68950
1.17280E+06 4.44430
1.17600E+06 4.31760
1.17820E+06 4.60850
1.18140E+06 6.92960
1.18230E+06 6.53830
1.18370E+06 7.16870
1.18640E+06 6.10930
1.18840E+06 6.57050
1.19150E+06 5.77390
1.19270E+06 5.56360
1.19450E+06 5.24060
1.19580E+06 7.18010
1.19730E+06 5.42810
1.19910E+06 5.33350
1.20000E+06 5.44070
1.20370E+06 5.88400
1.20650E+06 4.27070
1.20810E+06 4.48220
1.20910E+06 4.04900
1.21050E+06 4.84600
1.21200E+06 4.76140
1.21310E+06 5.38210
1.21870E+06 5.38700
1.22160E+06 4.51570
1.22250E+06 5.67980
1.22360E+06 4.30940
1.22550E+06 6.32480
1.22650E+06 6.65060
1.22760E+06 5.54920
1.22910E+06 6.09890
1.23270E+06 5.92990
1.23480E+06 7.36800
1.23560E+06 7.93130
1.23660E+06 5.17130
1.23910E+06 5.04590
1.24060E+06 5.79420
1.24230E+06 4.49250
1.24430E+06 5.05500
1.24540E+06 4.01790
1.24700E+06 4.37970
1.24970E+06 5.45910
1.25120E+06 4.78350
1.25320E+06 5.18850
1.25710E+06 4.42330
1.25850E+06 5.67030
1.25950E+06 4.04300
1.26140E+06 4.69520
1.26240E+06 4.28240
1.26400E+06 7.15030
1.26580E+06 5.44770
1.26880E+06 5.42780
1.27180E+06 5.67320
1.27600E+06 4.56580
1.28040E+06 4.39160
1.28280E+06 4.99830
1.28630E+06 5.06490
1.28830E+06 5.53720
1.29020E+06 4.63960
1.29340E+06 5.35180
1.29490E+06 4.40480
1.29610E+06 5.36430
1.29770E+06 4.59400
1.29980E+06 4.66280
1.30000E+06 4.76470
1.30080E+06 5.17600
1.30190E+06 6.05700
1.30370E+06 4.47470
1.30540E+06 5.18230
1.30710E+06 3.64410
1.30810E+06 4.91370
1.30940E+06 6.41200
1.31330E+06 4.75370
1.31690E+06 4.93910
1.32130E+06 5.33920
1.32370E+06 7.12220
1.32670E+06 5.79900
1.32920E+06 6.49980
1.33050E+06 6.00680
1.33200E+06 5.97600
1.33460E+06 5.07490
1.33740E+06 4.41840
1.33950E+06 7.79040
1.34360E+06 4.98570
1.34650E+06 6.22600
1.35060E+06 5.08810
1.35460E+06 5.71940
1.35540E+06 7.26570
1.35700E+06 5.09270
1.35960E+06 5.27250
1.36320E+06 5.72970
1.36430E+06 4.68190
1.36580E+06 6.86810
1.36890E+06 5.15110
1.37520E+06 5.17630
1.37720E+06 4.42300
1.37930E+06 5.75540
1.38110E+06 5.69780
1.38400E+06 4.82410
1.38740E+06 4.96810
1.38830E+06 4.47630
1.39150E+06 6.01690
1.39700E+06 5.07190
1.40000E+06 5.40640
1.40170E+06 5.59600
1.40820E+06 5.13490
1.40960E+06 5.56770
1.41120E+06 5.28640
1.41610E+06 5.61950
1.41850E+06 4.41730
1.42290E+06 5.49690
1.42480E+06 6.13520
1.42580E+06 6.36550
1.42720E+06 4.33850
1.43100E+06 4.98470
1.43510E+06 5.11960
1.43770E+06 5.35240
1.44040E+06 5.55590
1.44400E+06 4.81110
1.44670E+06 6.32060
1.44910E+06 5.36660
1.45270E+06 5.24280
1.45590E+06 6.30670
1.46010E+06 4.94990
1.46430E+06 5.44240
1.46580E+06 6.95860
1.46900E+06 4.87370
1.47590E+06 5.33990
1.47950E+06 4.99630
1.48250E+06 5.33880
1.48950E+06 5.07850
1.49080E+06 5.38640
1.49230E+06 4.84460
1.49590E+06 5.42430
1.49720E+06 4.91390
1.50000E+06 5.04800
1.50590E+06 5.33020
1.50740E+06 4.77380
1.51030E+06 4.56310
1.51360E+06 4.66230
1.51550E+06 4.46360
1.51880E+06 4.59350
1.52040E+06 5.07820
1.52360E+06 4.90590
1.52570E+06 5.37750
1.53140E+06 5.38440
1.53490E+06 5.63880
1.53650E+06 5.20840
1.54050E+06 5.05630
1.54210E+06 5.12840
1.54530E+06 4.56500
1.54800E+06 4.26720
1.55120E+06 7.01360
1.55630E+06 5.13430
1.56390E+06 5.57620
1.56530E+06 5.09960
1.56660E+06 4.66020
1.57070E+06 6.41390
1.57400E+06 5.11510
1.57680E+06 5.12800
1.57870E+06 4.76980
1.58100E+06 5.11480
1.58400E+06 6.89510
1.58590E+06 5.78790
1.58790E+06 6.14520
1.58990E+06 5.45210
1.59570E+06 6.36150
1.60000E+06 4.99730
1.60190E+06 4.39440
1.60900E+06 4.79040
1.61070E+06 5.49610
1.61590E+06 5.60190
1.61760E+06 6.34830
1.61960E+06 5.13090
1.62390E+06 5.45620
1.63230E+06 4.15610
1.63460E+06 6.99300
1.63900E+06 5.33430
1.64100E+06 5.42670
1.64133E+06 5.44196
1.64133E+06 5.44201
1.64200E+06 5.47300
1.64580E+06 4.60130
1.64780E+06 5.98920
1.65520E+06 6.15920
1.66150E+06 6.45650
1.67020E+06 5.49600
1.67230E+06 5.61780
1.67500E+06 5.29560
1.68560E+06 4.95150
1.68960E+06 5.05240
1.69450E+06 5.37060
1.69730E+06 4.22240
1.69940E+06 5.41860
1.70000E+06 5.43030
1.70410E+06 5.51110
1.70590E+06 6.36280
1.70870E+06 5.10230
1.71470E+06 5.71280
1.71650E+06 7.10120
1.71940E+06 4.85950
1.72410E+06 6.13110
1.72690E+06 5.11560
1.73260E+06 6.31130
1.73520E+06 4.71840
1.74030E+06 5.90280
1.74350E+06 4.40590
1.74860E+06 6.20120
1.75160E+06 5.12710
1.75410E+06 5.95390
1.75770E+06 5.82370
1.76290E+06 5.16380
1.76550E+06 4.80910
1.77010E+06 5.40840
1.77270E+06 4.40050
1.77640E+06 5.63330
1.77800E+06 4.94440
1.78370E+06 4.36400
1.78560E+06 6.02210
1.78900E+06 4.61090
1.79230E+06 5.98590
1.79370E+06 7.36650
1.79700E+06 5.26610
1.80000E+06 5.36710
1.80370E+06 5.49140
1.80610E+06 5.26800
1.80920E+06 5.83070
1.81360E+06 5.28720
1.81660E+06 6.02980
1.81970E+06 4.63730
1.82280E+06 4.80900
1.82660E+06 5.20640
1.82900E+06 5.23310
1.83110E+06 7.18440
1.83520E+06 5.85490
1.83970E+06 5.99940
1.84640E+06 5.83780
1.85270E+06 5.29230
1.85690E+06 5.83210
1.85870E+06 5.92960
1.86330E+06 6.94040
1.86540E+06 5.03200
1.86820E+06 6.44700
1.87250E+06 5.28330
1.87790E+06 5.80130
1.88330E+06 5.74600
1.88510E+06 6.22310
1.88910E+06 6.18890
1.89300E+06 6.02280
1.89600E+06 8.42170
1.89920E+06 5.66500
1.90000E+06 5.78550
1.90440E+06 6.44700
1.90800E+06 7.32480
1.91100E+06 6.77420
1.91760E+06 5.48020
1.92020E+06 6.48990
1.92320E+06 5.65280
1.95710E+06 5.75870
1.96280E+06 6.97010
1.97440E+06 5.88280
1.99780E+06 6.02660
1.99811E+06 6.05712
1.99811E+06 6.05722
2.00000E+06 6.24320
2.00370E+06 6.60760
2.00970E+06 5.80020
2.02760E+06 6.56590
2.05200E+06 6.21170
2.08940E+06 6.10670
2.10000E+06 6.65690
2.10210E+06 6.76590
2.10850E+06 6.89400
2.11490E+06 6.11320
2.12140E+06 6.39720
2.12780E+06 5.87100
2.15400E+06 7.09340
2.16070E+06 6.52510
2.18070E+06 6.87440
2.18750E+06 7.18150
2.19430E+06 6.30130
2.20000E+06 6.71040
2.20110E+06 6.78940
2.20790E+06 6.33940
2.22870E+06 7.24630
2.24260E+06 6.40450
2.26390E+06 7.23090
2.27820E+06 6.65090
2.29260E+06 7.28690
2.29990E+06 6.94730
2.30000E+06 6.95850
2.30720E+06 7.76380
2.31460E+06 6.47030
2.32200E+06 7.13250
2.32940E+06 6.87750
2.33434E+06 7.21629
2.33680E+06 7.38500
2.35135E+06 6.59519
2.35135E+06 6.59498
2.35140E+06 6.59250
2.35190E+06 6.56480
2.39780E+06 7.27830
2.40000E+06 7.18870
2.41340E+06 6.64300
2.42130E+06 7.54730
2.43710E+06 6.99190
2.46930E+06 7.47370
2.47740E+06 6.55900
2.50000E+06 7.15980
2.50200E+06 7.21340
2.52710E+06 6.76090
2.53550E+06 7.13120
2.56960E+06 6.79180
2.57830E+06 7.01850
2.58700E+06 6.40190
2.60000E+06 6.80300
2.61330E+06 7.21360
2.63000E+06 7.57210
2.63629E+06 7.70699
2.63680E+06 7.71810
2.64000E+06 7.78690
2.65000E+06 7.41460
2.65800E+06 7.11680
2.67500E+06 7.32820
2.67537E+06 7.33265
2.67538E+06 7.33272
2.70000E+06 7.63900
2.71517E+06 7.82534
2.73210E+06 8.03810
2.73930E+06 7.75030
2.74029E+06 7.71049
2.74029E+06 7.71045
2.75110E+06 7.27920
2.77030E+06 7.99900
2.80000E+06 7.95670
2.86940E+06 7.85810
2.87960E+06 8.21240
2.90000E+06 7.56370
2.90010E+06 7.56280
2.92090E+06 7.87420
2.95250E+06 7.78490
3.00000E+06 7.38740
3.00630E+06 7.33470
3.02830E+06 8.27270
3.03930E+06 7.86500
3.06160E+06 8.04730
3.07190E+06 7.99690
3.07290E+06 7.99220
3.10000E+06 8.10680
3.10700E+06 8.13640
3.11850E+06 8.13280
3.13000E+06 7.69840
3.14160E+06 7.64120
3.15330E+06 7.94900
3.16510E+06 7.73540
3.18880E+06 8.03870
3.19550E+06 7.89740
3.20000E+06 7.80210
3.21280E+06 7.53160
3.21760E+06 7.70830
3.21761E+06 7.70848
3.22490E+06 7.97620
3.23770E+06 7.91530
3.23971E+06 7.90551
3.23971E+06 7.90550
3.24920E+06 7.86040
3.26150E+06 8.17540
3.28290E+06 7.92930
3.29880E+06 7.74700
3.30000E+06 7.77500
3.31140E+06 8.04660
3.31410E+06 8.02760
3.32111E+06 7.97593
3.33168E+06 7.89911
3.33680E+06 7.86190
3.34960E+06 8.09070
3.36250E+06 7.77470
3.36574E+06 7.80509
3.37540E+06 7.89570
3.38840E+06 7.59410
3.39850E+06 7.77570
3.40000E+06 7.80330
3.40049E+06 7.81229
3.40049E+06 7.81232
3.40150E+06 7.83090
3.41470E+06 7.56710
3.42560E+06 7.74730
3.42800E+06 7.78770
3.43064E+06 7.79823
3.44270E+06 7.84770
3.44471E+06 7.85567
3.45470E+06 7.89650
3.46681E+06 7.51149
3.46681E+06 7.51136
3.46820E+06 7.46730
3.48790E+06 7.75460
3.49394E+06 7.84239
3.49395E+06 7.84247
3.49540E+06 7.86380
3.50000E+06 7.87270
3.51610E+06 7.90260
3.52010E+06 7.91010
3.52711E+06 7.92272
3.53680E+06 7.94130
3.53920E+06 7.89120
3.55080E+06 7.64930
3.56480E+06 7.81070
3.56953E+06 7.70735
3.57890E+06 7.50260
3.59320E+06 7.65670
3.59740E+06 7.62310
3.60000E+06 7.60290
3.60046E+06 7.59925
3.60046E+06 7.59923
3.60750E+06 7.54400
3.61754E+06 7.67486
3.61755E+06 7.67492
3.62190E+06 7.73280
3.63630E+06 7.48770
3.63760E+06 7.52080
3.64329E+06 7.66418
3.64970E+06 7.82570
3.65090E+06 7.85680
3.66280E+06 7.76870
3.66560E+06 7.74820
3.68030E+06 7.81850
3.69510E+06 7.52580
3.70000E+06 7.63290
3.71000E+06 7.85050
3.72510E+06 7.65930
3.74020E+06 7.84660
3.74320E+06 7.82590
3.76297E+06 7.69011
3.77060E+06 7.63770
3.80000E+06 7.75370
3.80176E+06 7.76064
3.83270E+06 7.88270
3.83560E+06 7.85760
3.84850E+06 7.74660
3.86908E+06 7.85687
3.87280E+06 7.87680
3.88030E+06 7.91690
3.89640E+06 7.66070
3.90000E+06 7.68700
3.91000E+06 7.75840
3.92880E+06 7.89310
3.96160E+06 7.82810
3.97820E+06 7.98040
3.99490E+06 7.78450
4.00000E+06 7.81480
4.00840E+06 7.86480
4.02850E+06 7.98410
4.05970E+06 7.85250
4.06260E+06 7.84030
4.07980E+06 7.85270
4.10000E+06 7.86730
4.10890E+06 7.87380
4.13210E+06 7.89130
4.13300E+06 7.88880
4.14010E+06 7.87360
4.14710E+06 7.85860
4.16020E+06 7.83070
4.18030E+06 7.78790
4.20000E+06 7.74610
4.20140E+06 7.74290
4.22050E+06 7.70100
4.22150E+06 7.70010
4.23050E+06 7.72770
4.27660E+06 7.86940
4.30000E+06 7.70790
4.31390E+06 7.61210
4.33270E+06 7.52070
4.35170E+06 7.73040
4.40000E+06 7.63630
4.40930E+06 7.61810
4.44830E+06 7.69340
4.46810E+06 7.47840
4.50000E+06 7.53150
4.54830E+06 7.61200
4.56870E+06 7.50860
4.58920E+06 7.73990
4.60000E+06 7.67920
4.60990E+06 7.62400
4.63070E+06 7.72260
4.65170E+06 7.56490
4.70000E+06 7.50290
4.71540E+06 7.48290
4.75860E+06 7.67490
4.77300E+06 7.70330
4.80000E+06 7.66760
4.90000E+06 7.53550
5.00000E+06 7.40320
5.00625E+06 7.39812
5.01250E+06 7.39304
5.01875E+06 7.38796
5.02500E+06 7.38288
5.03125E+06 7.37779
5.03750E+06 7.37271
5.04375E+06 7.36763
5.05000E+06 7.36255
5.05625E+06 7.35747
5.06250E+06 7.35239
5.06875E+06 7.34731
5.07500E+06 7.34223
5.08125E+06 7.33714
5.08750E+06 7.33206
5.09375E+06 7.32698
5.10000E+06 7.32190
5.10625E+06 7.31682
5.11250E+06 7.31174
5.11875E+06 7.30666
5.12500E+06 7.30158
5.13125E+06 7.29649
5.13750E+06 7.29141
5.14375E+06 7.28633
5.15000E+06 7.28125
5.15625E+06 7.27617
5.16250E+06 7.27109
5.16875E+06 7.26601
5.17500E+06 7.26093
5.18125E+06 7.25584
5.18750E+06 7.25076
5.19375E+06 7.24568
5.20000E+06 7.24060
5.22500E+06 7.22027
5.25000E+06 7.19995
5.27500E+06 7.17962
5.30000E+06 7.15930
5.32500E+06 7.13897
5.35000E+06 7.11865
5.37500E+06 7.09832
5.40000E+06 7.07800
5.45000E+06 7.03735
5.50000E+06 6.99670
5.54690E+06 6.95700
5.60000E+06 6.91288
5.65000E+06 6.87009
5.70000E+06 6.82730
5.75000E+06 6.78210
5.80000E+06 6.73689
5.85000E+06 6.69095
5.90000E+06 6.64500
5.95000E+06 6.59905
6.00000E+06 6.55310
6.10000E+06 6.45819
6.20000E+06 6.36328
6.30000E+06 6.26855
6.40000E+06 6.17383
6.50000E+06 6.07980
6.59226E+06 6.03490
6.60000E+06 6.03010
6.68391E+06 5.97900
6.71730E+06 5.95900
6.77063E+06 5.92760
6.80000E+06 5.91060
6.90000E+06 5.85525
7.00000E+06 5.79990
7.05758E+06 5.76970
7.19007E+06 5.70320
7.20000E+06 5.69830
7.30000E+06 5.65220
7.40000E+06 5.60610
7.43891E+06 5.58920
7.52547E+06 5.55290
7.52737E+06 5.55210
7.60000E+06 5.52300
7.80000E+06 5.44860
7.80287E+06 5.44760
8.00000E+06 5.38240
8.03444E+06 5.37180
8.05289E+06 5.36610
8.23157E+06 5.31755
8.41025E+06 5.26900
8.45945E+06 5.25720
8.50000E+06 5.24770
8.62170E+06 5.22070
8.82767E+06 5.17940
8.84348E+06 5.17640
9.00000E+06 5.14860
9.50000E+06 5.07680
9.53664E+06 5.07240
1.00000E+07 5.02770
1.04361E+07 5.00200
1.05000E+07 4.99950
1.08881E+07 4.99160
1.10000E+07 4.99150
1.15000E+07 5.00290
1.16679E+07 5.01090
1.18253E+07 5.02020
1.19854E+07 5.03140
1.20000E+07 5.03250
1.22285E+07 5.05140
1.25000E+07 5.07790
1.25016E+07 5.07810
1.25778E+07 5.08620
1.26269E+07 5.09160
1.27528E+07 5.10600
1.28752E+07 5.12060
1.30000E+07 5.13620
1.31207E+07 5.15180
1.32522E+07 5.16940
1.32691E+07 5.17160
1.34206E+07 5.19250
1.35000E+07 5.20370
1.35547E+07 5.21140
1.39033E+07 5.26190
1.40000E+07 5.27610
1.40197E+07 5.27900
1.40607E+07 5.28510
1.42804E+07 5.31740
1.45000E+07 5.34970
1.48133E+07 5.39460
1.48982E+07 5.40660
1.48983E+07 5.40661
1.50000E+07 5.42070
1.50569E+07 5.42850
1.55000E+07 5.48670
1.57901E+07 5.52200
1.59262E+07 5.53770
1.60000E+07 5.54600
1.60377E+07 5.55020
1.65000E+07 5.59780
1.65539E+07 5.60290
1.67913E+07 5.62450
1.68788E+07 5.63200
1.70000E+07 5.64200
1.70158E+07 5.64330
1.72816E+07 5.66380
1.73045E+07 5.66539
1.73279E+07 5.66709
1.73538E+07 5.66900
1.75000E+07 5.67909
1.75834E+07 5.68469
1.77246E+07 5.69360
1.80000E+07 5.70970
1.82731E+07 5.72389
1.85000E+07 5.73439
1.85746E+07 5.73769
1.87893E+07 5.74629
1.88937E+07 5.75019
1.89146E+07 5.75100
1.90000E+07 5.75400
1.93124E+07 5.76367
1.93972E+07 5.76596
1.94084E+07 5.76626
1.95000E+07 5.76866
1.95170E+07 5.76906
1.98090E+07 5.77548
1.98188E+07 5.77568
1.99576E+07 5.77819
2.00000E+07 5.77890
2.00000E+07 5.77911
2.10000E+07 5.78620
2.20000E+07 5.77540
2.30000E+07 5.74440
2.40000E+07 5.69180
2.50000E+07 5.61800
2.60000E+07 5.52680
2.70000E+07 5.42440
2.80000E+07 5.31710
2.90000E+07 5.21010
3.00000E+07 5.10640
3.10000E+07 5.00730
3.20000E+07 4.91300
3.30000E+07 4.82320
3.40000E+07 4.73810
3.50000E+07 4.65840
3.60000E+07 4.58520
3.70000E+07 4.51990
3.80000E+07 4.46310
3.90000E+07 4.41540
4.00000E+07 4.37650
4.10000E+07 4.34590
4.20000E+07 4.32290
4.30000E+07 4.30670
4.40000E+07 4.29660
4.50000E+07 4.29220
4.60000E+07 4.29300
4.70000E+07 4.29860
4.80000E+07 4.30860
4.90000E+07 4.32250
5.00000E+07 4.33980
5.10000E+07 4.36000
5.20000E+07 4.38240
5.30000E+07 4.40690
5.40000E+07 4.43260
5.50000E+07 4.45930
5.60000E+07 4.48670
5.70000E+07 4.51440
5.80000E+07 4.54220
5.90000E+07 4.56970
6.00000E+07 4.59680
6.10000E+07 4.62320
6.20000E+07 4.64880
6.30000E+07 4.67340
6.40000E+07 4.69680
6.50000E+07 4.71900
6.60000E+07 4.73980
6.70000E+07 4.75920
6.80000E+07 4.77710
6.90000E+07 4.79340
7.00000E+07 4.80800
7.10000E+07 4.82120
7.20000E+07 4.83270
7.30000E+07 4.84250
7.40000E+07 4.85090
7.50000E+07 4.85750
7.60000E+07 4.86260
7.70000E+07 4.86630
7.80000E+07 4.86840
7.90000E+07 4.86890
8.00000E+07 4.86810
8.10000E+07 4.86590
8.20000E+07 4.86240
8.30000E+07 4.85760
8.40000E+07 4.85150
8.50000E+07 4.84430
8.60000E+07 4.83590
8.70000E+07 4.82650
8.80000E+07 4.81600
8.90000E+07 4.80450
9.00000E+07 4.79220
9.10000E+07 4.77900
9.20000E+07 4.76490
9.30000E+07 4.75010
9.40000E+07 4.73450
9.50000E+07 4.71820
9.60000E+07 4.70140
9.70000E+07 4.68390
9.80000E+07 4.66590
9.90000E+07 4.64730
1.00000E+08 4.62840
1.02000E+08 4.58900
1.04000E+08 4.54830
1.06000E+08 4.50630
1.08000E+08 4.46350
1.10000E+08 4.42000
1.12000E+08 4.37610
1.14000E+08 4.33170
1.16000E+08 4.28720
1.18000E+08 4.24270
1.20000E+08 4.19840
1.22000E+08 4.15410
1.24000E+08 4.11040
1.26000E+08 4.06700
1.28000E+08 4.02420
1.30000E+08 3.98210
1.32000E+08 3.94050
1.34000E+08 3.89940
1.36000E+08 3.85930
1.38000E+08 3.82000
1.40000E+08 3.78160
1.42000E+08 3.74390
1.44000E+08 3.70690
1.46000E+08 3.67080
1.48000E+08 3.63570
1.50000E+08 3.60150
1.52000E+08 3.56800
1.54000E+08 3.53550
1.56000E+08 3.50390
1.58000E+08 3.47320
1.60000E+08 3.44320
1.62000E+08 3.41410
1.64000E+08 3.38590
1.66000E+08 3.35860
1.68000E+08 3.33180
1.70000E+08 3.30600
1.72000E+08 3.28110
1.74000E+08 3.25680
1.76000E+08 3.23340
1.78000E+08 3.21040
1.80000E+08 3.18840
1.82000E+08 3.16710
1.84000E+08 3.14640
1.86000E+08 3.12630
1.88000E+08 3.10690
1.90000E+08 3.08830
1.92000E+08 3.07020
1.94000E+08 3.05270
1.96000E+08 3.03570
1.98000E+08 3.01930
2.00000E+08 3.00340